Folder: Experimental-Data-Digitalization/data/nitrogen-adsorption-isotherms (part 9)

File: ja507119n-si_page_15_MOF-808-1.3SO4_ads.txt
# Relative Pressure (p/p0)    Quantity Adsorbed
0.955032	 568.551
0.90364	564.116
0.860814	561.861
0.807281	561.745
0.749465	559.458
0.708779	555.046
0.655246	552.768
0.605996	550.499
0.552463	550.384
0.456103	543.689
0.406852	541.42
0.353319	539.142
0.304069	536.874
0.252677	528.114
0.199143	525.836
0.1606	519.266
0.0899358	506.14
0.0813704	499.635
0.0685225	488.797
0.0578158	475.801
0.0492505	421.728
0.0299786	287.632
0.0299786	287.632
0.0171306	255.172
0.0107066	211.915
0.0107066	198.942
0.00642398	188.122
0.00642398	172.987
0.00214133	162.167
0.00214133	142.707
0.00214133	125.41
0.00214133	110.275
0.00214133	90.8154
0.00214133	60.5452

File: ja507119n-si_page_15_MOF-808-1.3SO4_des.txt
# Relative Pressure (p/p0)    Quantity Adsorbed
0.997423	 585.113
0.881443	559.223
0.78866	556.634
0.698454	551.456
0.597938	546.278
0.5	548.867
0.476804	543.689
0.443299	543.689
0.425258	543.689
0.399485	541.1
0.298969	535.922
0.185567	522.977
0.0953608	502.265
0.0489691	466.019
0.0103093	230.421

File: ja507119n-si_page_15_MOF-808-2.3SO4_ads.txt
# Relative Pressure (p/p0)    Quantity Adsorbed
0.949458	 557.17
0.907942	553.593
0.855596	551.862
0.799639	551.964
0.756318	548.39
0.702166	552.142
0.658845	543.089
0.552347	541.457
0.552347	541.457
0.5	536.073
0.451264	536.162
0.400722	536.254
0.348375	534.524
0.297834	530.963
0.247292	525.576
0.209386	521.992
0.149819	511.142
0.099278	500.275
0.0794224	493.006
0.0703971	487.543
0.0595668	482.083
0.0523466	436.434
0.0469314	414.526
0.0397112	350.612
0.0379061	337.83
0.0288809	304.97
0.0144404	262.987
0.0108303	230.117
0.00902527	215.509
0.00361011	202.733
0.00361011	193.601
0.00361011	184.468
0.00361011	173.509
0.0	151.598
-0.00361011	133.34
-0.00361011	120.555
-0.00361011	93.1573
-0.00361011	93.1573
-0.00180505	65.7567

File: ja507119n-si_page_15_MOF-808-2.3SO4_des.txt
# Relative Pressure (p/p0)    Quantity Adsorbed
1	 570.297
0.880208	557.096
0.799479	554.455
0.700521	546.535
0.59375	546.535
0.497396	541.254
0.476562	541.254
0.450521	541.254
0.424479	538.614
0.401042	533.333
0.2890625	530.693
0.1953125	522.772
0.1015625	499.01
0.0520833	464.686
0.0130208	237.624

File: ja507119n-si_page_16_MOF-808-2.5SO4_ads.txt
# Relative Pressure (p/p0)    Quantity Adsorbed
0.956113	 584.98
0.855799	572.332
0.855799	572.332
0.808777	572.332
0.749216	572.332
0.705329	569.17
0.652038	566.008
0.60815	566.008
0.554859	559.684
0.504702	559.684
0.451411	562.846
0.404389	553.36
0.338558	556.522
0.297806	550.198
0.244514	540.711
0.213166	540.711
0.141066	528.063
0.100313	521.739
0.0721003	509.091
0.0564263	490.119
0.0564263	467.984
0.031348	322.53
0.031348	322.53
0.0250784	284.585
0.015674	265.613
0.0	224.506
0.0	202.372
0.0	202.372
-0.00940439	170.751
-0.00940439	170.751
-0.00940439	145.455
-0.00626959	120.158
-0.00626959	104.348
-0.00626959	66.4032
-0.00626959	15.8103
-0.00626959	15.8103

File: ja507119n-si_page_16_MOF-808-2.5SO4_des.txt
# Relative Pressure (p/p0)    Quantity Adsorbed
1	 591.304
0.877743	578.656
0.789969	572.332
0.702194	569.17
0.601881	559.684
0.492163	566.008
0.388715	556.522
0.288401	547.036
0.194357	531.225
0.0971787	515.415
0.0470219	442.688
0.00626959	233.992

File: ja507119n_page_2_MOF-808 single crystal_ads.txt
# Relative Pressure (p/p0)    Quantity Adsorbed
-0.00251925	 80.7454
-0.00197159	124.832
0.00190418	145.165
0.00582209	168.89
0.00582209	168.89
0.00628549	206.194
0.00628549	206.194
0.0141634	257.034
0.0141634	257.034
0.0292452	304.453
0.0371653	358.685
0.0528369	453.582
0.100484	497.477
0.100484	497.477
0.180443	517.501
0.180443	517.501
0.256652	527.365
0.350892	530.373
0.350892	530.373
0.445133	533.381
0.4924	546.754
0.4924	546.754
0.546661	539.751
0.604629	539.515
0.648147	542.729
0.691623	542.552
0.793152	548.922
0.793152	548.922
0.74601	545.722
0.843874	548.716
0.905507	551.856
0.94536	551.694

File: ja507119n_page_2_MOF-808 single crystal_des.txt
# Relative Pressure (p/p0)    Quantity Adsorbed
0.984616	 552.099
0.878875	546.877
0.776153	541.643
0.67652	542.048
0.591984	542.392
0.486242	537.17
0.465108	537.256
0.443974	537.342
0.398651	534.701
0.298948	529.454
0.298948	529.454
0.156802	510.249
0.156802	510.249
0.138687	510.323
0.0811469	496.426
0.0811469	496.426
0.0537286	476.754
0.00840593	231.056

File: ja507119n_page_2_MOF-808-2.5SO4_ads.txt
# Relative Pressure (p/p0)    Quantity Adsorbed
-0.00595268	 47.4099
0.00050694	81.2983
0.0013495	149.124
0.0013495	149.124
0.000752686	101.081
0.000752686	101.081
0.000893113	112.385
0.00478995	183.025
0.0050357	202.808
0.00833572	225.404
0.0147251	253.64
0.0180954	281.889
0.0396508	315.716
0.0460754	346.778
0.0406338	394.846
0.0504286	454.157
0.0720894	496.462
0.0873257	507.705
0.0994023	507.656
0.154063	532.87
0.202405	535.499
0.247693	535.315
0.299089	540.758
0.350485	546.202
0.395843	551.669
0.450258	557.1
0.501549	554.065
0.552945	559.509
0.655597	559.091
0.655597	559.091
0.60729	559.288
0.749226	561.536
0.749226	561.536
0.803642	566.967
0.848894	563.957
0.906364	572.202
0.945613	572.042
0.873118	569.511

File: ja507119n_page_2_MOF-808-2.5SO4_des.txt
# Relative Pressure (p/p0)    Quantity Adsorbed
0.994095	 585.976
0.876172	572.324
0.788581	569.855
0.694916	564.583
0.598303	564.977
0.389804	551.694
0.389804	551.694
0.196367	535.524
0.196367	535.524
0.0246954	327.082
0.0246954	327.082
0.0171475	205.585
0.0442849	445.704

File: ja507119n_page_2_MOF-808-P_ads.txt
# Relative Pressure (p/p0)    Quantity Adsorbed
0.954951	 594.614
0.84921	589.391
0.84921	589.391
0.803887	586.75
0.90352	586.344
0.74045	584.182
0.643801	581.749
0.698111	578.702
0.698111	578.702
0.562178	573.602
0.589421	579.144
0.589421	579.144
0.510852	573.811
0.492737	573.885
0.459491	571.194
0.40813	568.577
0.308462	566.156
0.308462	566.156
0.359753	563.121
0.260015	555.048
0.205635	552.443
0.166316	546.951
0.108811	535.88
0.081498	524.686
0.0661915	507.791
0.0629265	488.021
0.0527456	397.623
0.020623	242.311
0.020623	242.311
0.0303125	293.144
0.0400019	343.977

File: ja507119n_page_2_MOF-808-P_des.txt
# Relative Pressure (p/p0)    Quantity Adsorbed
0.985178	 597.317
0.873293	583.641
0.761584	584.096
0.677047	584.44
0.580363	579.181
0.471638	576.797
0.414239	574.204
0.414239	574.204
0.390085	574.303
0.290347	566.23
0.193558	552.493
0.0966991	533.103
0.0506041	468.288
0.0207986	256.442
0.00166546	174.559

File: ja510525s-si_page_17_PCN-222(Fe)_ads.txt
# Relative Pressure (p/p0)    Quantity Adsorbed
0.00288807	 16.5742
0.000432291	149.683
-0.0020051	289.286
0.0124537	393.229
0.0324494	451.735
0.063694	481.057
0.0977898	516.882
0.137542	549.479
0.26253	670.015
0.2882	731.786
0.185848	601.584
0.2341	634.208
0.29118	783.744
0.294234	861.676
0.29439	916.871
0.356815	952.788
0.356815	952.788
0.297306	946.102
0.314331	955.897
0.427674	966.005
0.473019	972.646
0.541017	976.114
0.586343	976.261
0.623208	989.367
0.660035	989.487
0.728015	986.461
0.76201	986.571
0.824343	990.021
0.886666	990.223
0.929178	996.854
0.943351	1000.15

File: ja510525s-si_page_17_PCN-222(Fe)_des.txt
# Relative Pressure (p/p0)    Quantity Adsorbed
0.951813	 987.188
0.937676	996.882
0.889508	993.479
0.889508	993.479
0.847006	990.094
0.832841	990.048
0.818677	990.002
0.79319	993.166
0.770527	993.093
0.75353	993.037
0.736523	989.735
0.736523	989.735
0.719526	989.68
0.696853	986.36
0.67419	986.286
0.651527	986.213
0.637363	986.167
0.611858	982.837
0.597693	982.791
0.575012	976.224
0.546683	976.132
0.52402	976.058
0.515521	976.031
0.4957	979.213
0.475851	972.655
0.453188	972.582
0.42485	969.243
0.405002	962.685
0.405002	962.685
0.37384	962.584
0.37384	962.584
0.336985	952.724
0.336985	952.724
0.317164	955.906
0.30013	942.864
0.294243	864.923
0.294206	851.936
0.294188	845.442
0.294151	832.455
0.294078	806.481
0.294078	806.481
0.291217	796.731
0.293995	777.26
0.293949	761.026
0.293903	744.792
0.288182	725.293
0.288182	725.293
0.288108	699.318
0.285266	696.062
0.279554	679.81
0.271047	676.536
0.248301	647.241
0.248301	647.241
0.219917	627.668
0.219917	627.668
0.234109	637.455
0.182988	591.834
0.182988	591.834
0.157437	572.271
0.157437	572.271
0.126211	549.442
0.0892819	513.608
0.0892819	513.608
0.0466783	474.509
0.0466783	474.509
0.0237944	396.512

File: ja510525s-si_page_17_PCN-223(Fe) with impurity of PCN-222(Fe)_ads.txt
# Relative Pressure (p/p0)    Quantity Adsorbed
5.51861e-05	 16.565
0.000220744	75.0071
0.000377105	130.202
-0.00234541	169.155
-0.00229942	185.389
0.000689826	240.593
0.00658554	321.781
0.0208236	347.801
0.0265905	383.534
0.0323115	403.033
0.106031	426
0.174085	448.948
0.213745	449.077
0.233594	455.635
0.267588	455.745
0.295945	465.578
0.321496	485.141
0.352648	481.996
0.378163	488.572
0.412167	491.929
0.446161	492.039
0.488691	505.165
0.522649	492.288
0.567994	498.928
0.618986	499.094
0.715286	492.913
0.667127	492.757
0.667127	492.757
0.774804	502.847
0.842802	506.314
0.882463	506.443
0.927798	509.837
0.953294	509.92

File: ja510525s-si_page_17_PCN-223(Fe) with impurity of PCN-222(Fe)_des.txt
# Relative Pressure (p/p0)    Quantity Adsorbed
0.956118	 506.682
0.936297	509.865
0.919318	516.303
0.899469	509.745
0.873973	509.662
0.856976	509.607
0.834304	506.287
0.811622	499.719
0.791783	496.408
0.774813	506.093
0.749299	499.517
0.732311	502.709
0.692632	496.086
0.692632	496.086
0.715304	499.407
0.675644	499.278
0.65299	502.451
0.624652	499.112
0.635992	502.396
0.613329	502.322
0.596323	499.02
0.57366	498.947
0.556653	495.645
0.528324	495.553
0.516993	495.516
0.49433	495.443
0.477332	495.387
0.457511	498.57
0.429182	498.478
0.409352	498.413
0.398021	498.377
0.378172	491.819
0.361184	495.01
0.335688	494.927
0.313025	494.854
0.293167	485.049
0.276105	462.266
0.259108	462.211
0.244944	462.165
0.213773	458.817
0.1911	455.497
0.176927	452.204
0.154245	445.637
0.131555	435.823
0.114557	435.768
0.094727	435.704
0.0748692	425.899
0.0550206	419.341

File: ja510525s-si_page_17_PCN-223(Fe)_ads.txt
# Relative Pressure (p/p0)    Quantity Adsorbed
-0.0027777	 16.5558
-0.00272252	36.0365
-0.00268572	49.0237
-0.00263054	68.5044
-0.00257535	87.9851
-0.00252936	104.219
-0.00246498	126.946
-0.0024006	149.674
-0.00236381	162.661
-0.00232701	175.648
-0.00227183	195.129
-0.00223504	208.116
-0.00221664	214.61
0.000643838	224.359
0.000689826	240.593
0.000864582	302.282
0.000892176	312.022
0.000928966	325.009
0.00664073	341.262
0.0151762	354.276
0.0293958	373.803
0.0407549	383.58
0.0549562	396.613
0.0804614	399.943
0.100292	400.007
0.134286	400.118
0.156968	406.685
0.193814	413.298
0.233474	413.427
0.281633	413.583
0.256128	410.254
0.256128	410.254
0.213644	413.362
0.173983	413.234
0.30998	420.169
0.332653	423.489
0.349622	413.804
0.363805	420.343
0.392134	420.435
0.409131	420.491
0.431785	417.317
0.448792	420.619
0.479954	420.721
0.479954	420.721
0.516781	420.84
0.533779	420.895
0.533779	420.895
0.570606	421.015
0.556451	424.216
0.590445	424.326
0.613109	424.4
0.630106	424.455
0.644261	421.254
0.669757	421.337
0.69242	421.41
0.706575	418.21
0.706575	418.21
0.734923	424.795
0.746254	424.832
0.768899	418.412
0.794395	418.495
0.817076	425.062
0.834046	415.377
0.870883	418.743
0.88788	418.798
0.88788	418.798
0.902045	418.844
0.927541	418.927
0.950195	415.754
0.502626	424.041

File: ja510525s-si_page_17_PCN-223(Fe)_des.txt
# Relative Pressure (p/p0)    Quantity Adsorbed
0.933197	 415.699
0.955879	422.266
0.955879	422.266
0.916218	422.137
0.896388	422.073
0.873716	418.752
0.831222	418.614
0.831222	418.614
0.84822	418.669
0.817058	418.568
0.794395	418.495
0.768899	418.412
0.751902	418.357
0.737737	418.311
0.717907	418.246
0.698086	421.429
0.675423	421.355
0.658426	421.3
0.635762	421.226
0.618765	421.171
0.601768	421.116
0.579105	421.042
0.553618	424.206
0.533788	424.142
0.513948	420.831
0.496951	420.776
0.477121	420.711
0.451625	420.629
0.428962	420.555
0.41763	420.518
0.3978	420.454
0.36948	423.609
0.335467	417.005
0.335467	417.005
0.312804	416.931
0.290141	416.858
0.355307	420.316
0.270311	416.793
0.253313	416.738
0.236316	416.683
0.193814	413.298
0.193814	413.298
0.168299	406.722
0.210829	419.847
0.148497	416.398
0.125806	406.584
0.108809	406.529
0.0832942	399.952
0.0492812	393.348
0.0407641	386.827
0.0294142	380.297
0.0180367	364.026
0.00659474	325.028
0.000745013	260.074
0.00333876	175.667
0.00314561	107.484
0.00299845	55.5356

File: ja512137t-si_page_12_CPM-33a_ads.txt
# Relative Pressure (p/p0)    Quantity Adsorbed
3.29048e-05	 243.681
-0.000325131	233.251
-0.000325131	226.108
-0.000325131	218.835
-0.000325131	211.615
-0.000325131	204.451
-0.000325131	197.307
-0.000325131	190.09
-0.000325131	182.921
-0.000325131	175.659
-0.000325131	168.462
-0.000325131	161.157
-0.000325131	153.96
-0.000325131	146.656
-0.00107701	139.969
-0.000325131	132.714
-0.000701069	125.05
-0.000325131	117.646
-0.00107701	109.137
-0.000325131	101.17
0.000614713	92.4037
-0.00283138	84.3959
0.000614713	78.0658
-0.00283138	69.9744
-0.000325131	65.0529
-0.000325131	57.8815
0.000614713	49.2696
-0.00107701	40.2338
-0.000325131	33.4375
-0.000325131	26.2135
-0.000325131	19.0325
-0.000325131	11.8887
-0.000951695	4.66295
0.00180518	254.691
-0.00333263	0.588393
0.00869738	247.828
0.0183214	273.386
0.0124568	264.639
0.0264416	272.637
0.0399539	276.409
0.0568174	278.761
0.0711031	279.133
0.0899	280.872
0.110952	281.903
0.129749	282.654
0.151554	283.55
0.170351	283.778
0.190651	284.634
0.210952	284.999
0.230501	285.349
0.251553	285.798
0.269598	286.015
0.289899	286.236
0.310951	286.794
0.331252	286.807
0.351553	286.963
0.367342	288.541
0.39065	287.366
0.408695	288.407
0.432003	287.811
0.450048	287.8
0.470349	288.234
0.487492	289.538
0.504559	288.657
0.519806	289.665
0.535386	288.898
0.552304	288.708
0.5711	289.009
0.586138	289.278
0.606138	289.36
0.622228	289.516
0.639333	289.759
0.655311	289.439
0.669972	289.228
0.689897	289.245
0.705686	289.646
0.725319	289.812
0.741024	290.018
0.756663	290.197
0.774107	290.325
0.788393	290.554
0.811701	291.052
0.829746	291.666
0.847457	292.24
0.862979	293.094
0.878868	293.652
0.894741	294.214
0.9117	295.139
0.928993	297.053

File: ja512137t-si_page_12_CPM-33a_des.txt
# Relative Pressure (p/p0)    Quantity Adsorbed
-0.00147085	 230.388
-0.00233013	211.396
-0.000879145	201.137
-0.00182888	191.391
-0.00182888	184.162
-0.0026386	175.923
-0.000879145	165.379
-0.00182888	155.418
-0.00182888	148.233
-0.0026386	140.191
-0.0021759	131.448
-0.000502043	121.774
-0.0026386	111.479
-0.000879145	100.841
-0.00220482	90.4951
-0.00122738	79.791
-0.00182888	69.5401
-0.0026386	61.3837
-0.00182888	53.7021
-0.000993465	44.0001
-0.00157826	34.3038
-0.00182888	12.3009
-0.00233013	3.4166
3.29048e-05	250.826
0.000276369	240.791
0.00368487	257.108
0.0035026	266.353
0.017156	273.262
0.951289	298.767
0.951289	298.767
0.91404	298.721
0.893983	298.696
0.873926	298.672
0.851003	296.164
0.819484	296.125
0.819484	296.125
0.802292	296.103
0.802292	296.103
0.744986	296.032
0.713467	289.795
0.713467	289.795
0.676218	294.707
0.664756	294.693
0.633238	294.654
0.621777	294.64
0.598854	294.612
0.570201	294.576
0.547278	294.548
0.524355	293.279
0.504298	293.255
0.489971	293.237
0.481375	293.226
0.455587	293.194
0.429799	291.923
0.406877	291.894
0.404011	291.891
0.386819	290.63
0.369628	290.608
0.352436	290.587
0.329513	289.319
0.323782	293.031
0.323782	293.031
0.30659	291.77
0.297994	291.759
0.275072	289.251
0.26361	289.237
0.252149	289.223
0.223496	285.469
0.212034	287.934
0.197708	287.916
0.17765	287.891
0.169054	287.88
0.143266	284.129
0.13467	286.598
0.126074	286.587
0.114613	285.334
0.0945559	284.069
0.0716332	284.041
0.0487106	282.773
0.0315186	280.272
0.0315186	280.272
0.767908	294.821
0.707736	288.548
0.707736	288.548
0.707736	288.548
0.710602	291.031
0.710602	291.031
0.713467	289.795
0.713467	289.795
0.710602	288.552
0.707736	292.267

File: ja512137t-si_page_14_CPM-33a_ads.txt
# Relative Pressure (p/p0)    Quantity Adsorbed
-0.00442713	 126.803
-0.00388338	20.112
0.00225281	185.663
0.00206822	156.441
0.00193074	141.197
0.00240051	218.409
0.00241769	203.842
0.0025584	125.809
0.00277256	95.7142
0.00282909	80.8603
0.00322968	33.8675
0.00331784	19.2278
0.00221818	236.97
0.00245793	197.16
0.00309207	91.86
0.0028505	213.976
0.00380754	137.06
0.00340388	122.086
0.00758239	263.169
0.00492141	252.774
0.0142327	272.705
0.0191001	270.982
0.024414	274.219
0.0350638	277.052
0.0455148	277.353
0.0469192	276.501
0.0576636	278.196
0.0686333	278.938
0.0844276	280.336
0.0944431	280.725
0.106149	281.489
0.11673	281.825
0.127874	282.21
0.139582	282.62
0.149598	282.93
0.161571	283.359
0.170336	283.578
0.185147	284.18
0.195164	284.385
0.206874	284.443
0.218107	284.845
0.228599	285.112
0.240873	285.334
0.249832	285.348
0.264153	285.447
0.27337	285.618
0.285879	285.963
0.296459	286.219
0.307606	286.277
0.318839	286.434
0.329333	286.59
0.345135	286.614
0.35571	287.87
0.366984	288.547
0.378007	287.264
0.388589	287.19
0.399993	288.808
0.409249	288.931
0.421949	287.447
0.430564	287.34
0.444886	287.327
0.454103	287.434
0.466612	287.818
0.477749	289.257
0.488331	289.362
0.499942	288.461
0.510066	288.419
0.524804	290.137
0.532289	288.347
0.545621	288.538
0.55564	288.417
0.56735	288.431
0.579058	289.072
0.587967	288.596
0.60031	289.035
0.610808	288.421
0.621878	289.401
0.632814	289.255
0.645376	288.474
0.656649	288.912
0.665485	289.059
0.678952	289.261
0.68982	288.797
0.701104	289.244
0.711435	289.335
0.723522	289.154
0.733275	289.118
0.743756	289.773
0.754172	290.507
0.765866	289.55
0.776729	289.77
0.786111	289.915
0.799441	290.495
0.810304	290.661
0.825119	290.71
0.834338	290.537
0.84684	291.939
0.856865	290.878
0.868564	292.761
0.880255	292.147
0.885198	295.32
0.893254	293.173
0.906083	294.828
0.917031	297.366
0.928013	296.667
0.936201	295.918

File: ja512137t-si_page_14_CPM-33a_des.txt
# Relative Pressure (p/p0)    Quantity Adsorbed
0.957926	 300.787
0.957926	300.787
0.90825	299.43
0.930826	300.745
0.896951	300.693
0.874367	300.658
0.851799	298.064
0.833709	301.876
0.833709	301.876
0.793075	299.254
0.813392	300.565
0.813392	300.565
0.745673	295.341
0.770507	296.659
0.725356	294.03
0.709547	294.006
0.695982	296.545
0.695982	296.545
0.677915	296.517
0.653089	293.919
0.625997	292.598
0.605672	292.566
0.596638	292.553
0.576313	292.521
0.55373	292.487
0.537922	292.462
0.513064	294.984
0.497264	293.68
0.497264	293.68
0.445338	291.04
0.467913	292.355
0.427263	292.292
0.413713	292.272
0.395646	292.244
0.370812	290.926
0.350487	290.895
0.336937	290.874
0.314354	290.839
0.294029	290.808
0.294029	290.808
0.244338	292.012
0.266937	289.486
0.266937	289.486
0.226287	289.424
0.192419	288.092
0.205962	289.393
0.205962	289.393
0.145002	286.739
0.16081	286.764
0.16081	286.764
0.10661	286.681
0.12016	286.701
0.0817841	284.083
0.0704924	284.065
0.0479245	281.471
0.0321239	280.167
0.00507779	271.166
0.00284257	267.323
0.00284257	267.323
0.00291194	255.805
-0.00603661	241.712
-0.00603661	241.712
-0.00590558	219.955
-0.00121935	191.805
-0.00311542	131.649
-0.00266838	57.4171
-0.00263755	52.2977
-0.00255277	38.2194
-0.00236008	6.22306
-0.00236008	6.22306

File: ja512137t-si_page_14_CPM-33b_ads.txt
# Relative Pressure (p/p0)    Quantity Adsorbed
0.971722	 259.852
0.917538	257.209
0.847522	258.382
0.800089	259.589
0.712029	256.894
0.712029	256.894
0.748163	256.949
0.614936	254.185
0.565245	255.388
0.51782	255.315
0.51782	255.315
0.418446	256.443
0.364246	256.359
0.303286	253.706
0.303286	253.706
0.0774678	250.8
0.0594011	250.772
0.0435928	250.748
0.0277922	249.443
0.0052936	235.33
-0.00592871	223.794
-0.00592871	223.794
-0.00807143	204.593
-0.00787103	171.317
-0.00318479	143.167
-0.000710643	107.335
-0.00275316	71.4955
-0.0023832	10.0626

File: ja512137t-si_page_14_CPM-33b_des.txt
# Relative Pressure (p/p0)    Quantity Adsorbed
0.996556	 261.17
0.928829	257.227
0.960446	257.275
0.876872	259.707
0.876872	259.707
0.777505	259.554
0.777505	259.554
0.82493	259.627
0.675873	260.678
0.675873	260.678
0.721047	259.467
0.581015	261.812
0.581015	261.812
0.630706	260.608
0.531339	260.456
0.481656	260.379
0.429753	253.9
0.375553	253.817
0.325854	256.301
0.285212	254.958
0.249078	254.903
0.197152	252.263
0.0978006	249.551
0.0978006	249.551
0.142952	252.18
0.00525506	241.73
-0.00592871	223.794
-0.0011731	184.126
0.00133959	141.894
-0.00286107	89.4134
-0.00249881	29.2604
-0.000171109	17.7452
-0.00234466	3.66336

File: ja512137t-si_page_14_CPM-33c_ads.txt
# Relative Pressure (p/p0)    Quantity Adsorbed
0.976331	 244.501
0.919881	243.134
0.919881	243.134
0.813708	248.091
0.813708	248.091
0.761766	248.011
0.714334	249.218
0.666909	249.145
0.666909	249.145
0.562994	254.105
0.562994	254.105
0.434262	255.187
0.350711	253.779
0.350711	253.779
0.260362	256.2
0.0797339	249.523
0.0684422	249.506
0.0458897	244.352
0.00981027	235.337
0.00981027	235.337
-0.00142745	226.361
-0.00336977	173.884
-0.00276858	74.0552
-0.00462612	7.49945

File: ja512137t-si_page_14_CPM-33c_des.txt
# Relative Pressure (p/p0)    Quantity Adsorbed
0.989851	 249.641
0.931165	244.432
0.883717	248.198
0.824992	249.388
0.779833	248.039
0.73015	247.962
0.633018	251.653
0.581077	251.573
0.531393	251.497
0.481702	252.7
0.436512	256.47
0.382328	253.828
0.337153	255.038
0.278452	252.388
0.251329	256.186
0.194894	252.26
0.149735	250.911
0.0978006	249.551
0.00981027	235.337
0.00335128	182.853
-0.00754731	117.563
-0.00272233	66.3761
-0.00686133	3.65642
0.00191766	45.9054
0.00191766	45.9054
-0.00284566	86.8537
0.00136271	138.055
0.00349772	158.536

File: ja512137t-si_page_14_CPM-33d_ads.txt
# Relative Pressure (p/p0)    Quantity Adsorbed
-0.00298306	 34.6176
-0.00190017	18.8067
-0.00194715	6.10758
0.00643608	55.9309
0.0162637	57.2465
0.0284013	60.4115
0.0383307	62.5945
0.0491898	63.4712
0.0598123	64.5884
0.0708896	68.2805
0.0777066	65.0469
0.0855321	67.1123
0.0985604	65.6227
0.109797	65.3314
0.130162	66.3073
0.159085	66.6316
0.169662	67.4874
0.180526	67.5041
0.191763	67.1715
0.202254	67.6647
0.218054	68.1215
0.228918	68.1382
0.239785	67.735
0.250648	67.9791
0.262918	68.7901
0.27237	69.0445
0.283234	69.1121
0.295985	70.1344
0.303725	69.5696
0.315826	69.3911
0.336709	69.1033
0.348421	69.085
0.360024	69.389
0.370145	69.8307
0.381009	69.9492
0.393993	69.3912
0.401161	69.2824
0.43039	70.2794
0.442904	69.6796
0.451056	70.137
0.466931	70.7172
0.477795	70.7593
0.490394	69.7292
0.499395	70.2887
0.511798	70.9715
0.521249	71.3604
0.532115	71.199
0.547591	70.7173
0.557513	71.0017
0.568657	71.4586
0.590105	71.2117
0.600265	71.0967
0.615076	71.6571
0.625942	71.5466
0.636412	71.4227
0.648066	71.45
0.658254	71.2764
0.669395	72.1731
0.68026	72.1898
0.691975	71.4881
0.7168	72.8311
0.727664	72.8223
0.737708	72.3246
0.749527	72.4641
0.760997	72.9085
0.771118	73.4488
0.781982	73.4655
0.794056	73.1419
0.801559	73.0376
0.81556	73.9496
0.825928	74.4285
0.835874	74.5078
0.84828	74.6868
0.860738	75.3356
0.893202	78.0675
0.901993	80.1404
0.913287	82.6738
0.914739	78.5204
0.926149	78.9535
0.937109	79.469
0.947858	82.1781
0.95221	78.6593
0.962096	79.7313
0.973539	82.0031
0.981437	82.5037

File: ja512137t-si_page_14_CPM-33d_des.txt
# Relative Pressure (p/p0)    Quantity Adsorbed
-0.00800289	 48.1462
-0.00574761	34.4627
-0.00289458	19.9246
0.00164878	3.51265
0.00647642	55.6634
0.0123566	56.844
0.0560712	68.8395
0.0669321	69.4159
0.077793	69.9923
0.0856887	70.9408
0.114322	72.4655
0.125186	72.5585
0.134567	72.821
0.164684	73.9931
0.175549	73.9334
0.184931	73.9828
0.225915	74.8504
0.23431	74.8633
0.262128	75.0459
0.267393	75.4738
0.291756	75.3713
0.300983	74.0116
0.311836	75.822
0.31875	75.8326
0.347397	75.0667
0.358253	76.5039
0.369115	76.7495
0.379486	76.7375
0.409602	78.0584
0.420462	78.7875
0.431323	79.3639
0.440209	79.9373
0.468338	83.129
0.496473	85.3412
0.507337	85.4342
0.516226	85.4515
0.546841	85.9783
0.557705	85.995
0.5661	86.0079
0.598202	85.5483
0.609066	85.6159
0.615981	85.5247
0.646598	85.6735
0.657462	85.5884
0.665857	85.6946
0.695982	85.4695
0.715736	85.478
0.746355	85.2416
0.757219	85.3854
0.766602	85.2663
0.796727	85.1663
0.807592	84.9794
0.81648	85.2329
0.8471	84.7941
0.857963	85.0568
0.865864	85.1249
0.965995	85.782
0.997612	85.8305
0.927604	85.723
0.871145	85.6363
0.82372	85.5635
0.780789	89.3371
0.728863	86.6976
0.68143	87.9047
0.584321	87.7555
0.584321	87.7555
0.484978	83.7633
0.394675	78.5052
0.394675	78.5052
0.202732	75.6507
0.0379354	65.1587

File: ja512137t-si_page_14_CPM-34_ads.txt
# Relative Pressure (p/p0)    Quantity Adsorbed
0.0050983	 278.069
0.0113512	278.452
0.0168922	287.733
0.0259593	289.402
0.0365987	295.525
0.0467961	296.931
0.0588513	301.06
0.0679488	301.488
0.0789499	304.303
0.0857608	304.967
0.109612	307.802
0.118826	308.58
0.129685	309.461
0.141147	308.578
0.147473	307.86
0.163253	311.625
0.174114	312.226
0.184481	312.787
0.209006	313.21
0.219533	314.408
0.230396	314.73
0.237803	314.856
0.26397	315.876
0.274832	316.198
0.284708	316.374
0.314332	317.327
0.320752	317.362
0.343658	317.354
0.353154	317.541
0.3647	317.989
0.375562	318.26
0.384735	318.02
0.397798	316.081
0.414076	319.159
0.42494	319.201
0.435411	318.966
0.446316	318.208
0.45782	318.412
0.473332	319.835
0.496447	319.386
0.507198	319.448
0.517776	320.184
0.52864	320.2
0.539878	319.658
0.549054	319.858
0.564194	320.535
0.575058	320.551
0.584278	320.332
0.596405	320.95
0.611104	321.306
0.639365	320.775
0.650121	320.641
0.663941	321.807
0.674804	322.053
0.684558	321.909
0.696841	322.103
0.707678	322.274
0.718254	323.366
0.729116	323.714
0.740353	323.429
0.749529	323.506
0.763674	325.472
0.774534	326.252
0.784284	326.785
0.796652	327.198
0.807395	328.545
0.817963	331.025
0.828816	332.797
0.840659	334.281
0.848804	334.919
0.861365	340.2
0.872208	343.652
0.880588	346.302
0.89784	351.604
0.909154	358.987
0.919488	364.994
0.930316	371.092
0.941143	377.321
0.94745	379.588
0.973699	383.498
0.981595	384.37
-0.00383223	250.675
-0.003601	212.279
-0.003601	212.279
-0.0012733	200.764
0.00348231	161.096
-0.00532751	123.966
-0.00532751	123.966
-0.00287649	91.9731
-0.000425461	59.9803
-0.000271309	34.3833
-0.00236778	7.50291