Folder: Experimental-Data-Digitalization/data/nitrogen-adsorption-isotherms (part 13)

File: jacs.5b11034_page_4_Zn-bpdc-11a(bpe)_des.txt
# Relative Pressure (p/p0)    Quantity Adsorbed
0.980978	 97.229
0.962927	62.4407
0.962927	62.4407
0.949221	50.9959
0.929791	41.681
0.904665	35.7696
0.88343	31.9759
0.858358	28.6116
0.844879	27.7797
0.819834	25.689
0.798654	24.4424
0.765908	21.9369
0.738968	21.1222
0.702412	20.3197
0.648531	18.6902
0.600419	17.0533
0.550393	15.8435
0.504241	15.9022
0.454224	15.1169
0.40037	14.7609
0.294549	12.3485
0.213773	12.0269
0.129115	10.0121
0.0636775	7.54823

File: jacs.5b11034_page_4_Zn-bpdc-12a(bpe)_ads.txt
# Relative Pressure (p/p0)    Quantity Adsorbed
0.00741228	 4.68023
0.0336367	7.73209
0.0604495	10.0175
0.0872273	10.9415
0.114003	11.766
0.140787	12.9514
0.167562	13.7428
0.194327	14.2003
0.221099	14.8653
0.24787	15.5385
0.274633	15.8824
0.301404	16.5312
0.328162	16.7094
0.35493	17.2168
0.381701	17.8748
0.408474	18.61
0.435231	18.7383
0.462	19.3228
0.488783	20.4503
0.515541	20.5807
0.542312	21.2564
0.569082	21.8542
0.595856	22.6548
0.620199	23.4441
0.645921	23.8683
0.676128	23.004
0.70291	24.0886
0.729705	25.6843
0.758194	27.6793
0.783302	29.1517
0.80917	31.077
0.836926	33.6774
0.863763	36.8771
0.890631	41.33
0.907335	46.0504
0.926413	51.915
0.9399	58.3842
0.952321	75.8341
0.947684	65.7109
0.954626	70.862
0.965274	82.9925
0.970494	88.955
0.963271	76.0301
0.982116	111.396
0.988115	150.514
0.990454	161.98
0.981118	155.426
0.988045	141.011
0.986327	121.478
0.98897	129.667
0.989967	168.55
0.990339	135.656

File: jacs.5b11034_page_4_Zn-bpdc-12a(bpe)_des.txt
# Relative Pressure (p/p0)    Quantity Adsorbed
0.986276	 165.147
0.981976	143.926
0.981677	129.917
0.981677	129.917
0.979826	133.315
0.979908	137.136
0.977795	128.224
0.97579	124.405
0.975627	116.764
0.975627	116.764
0.971654	110.826
0.967735	107.435
0.96768	104.887
0.965694	101.918
0.961721	95.98
0.959771	94.7089
0.940277	82.4224
0.943978	75.6252
0.943978	75.6252
0.943951	74.3517
0.940042	71.3849
0.93029	65.0294
0.91868	61.648
0.907033	56.5685
0.895386	51.489
0.878015	48.5394
0.866377	43.8844
0.831645	38.4098
0.78922	32.9449
0.810419	35.0406
0.775714	30.8395
0.750696	30.0223
0.712136	25.4016
0.712136	25.4016
0.667834	22.0618
0.667834	22.0618
0.631287	21.6838
0.612012	19.5857
0.588926	19.1906
0.55238	18.8126
0.527362	17.9954
0.515824	18.0101
0.515824	18.0101
0.475413	16.788
0.454233	15.5414
0.454233	15.5414
0.406139	14.7536
0.406139	14.7536
0.388832	14.7756
0.359959	13.5388
0.359959	13.5388
0.336874	13.1437
0.315712	12.7461
0.298414	13.1927
0.258003	11.9706
0.258003	11.9706
0.215696	12.0244
0.215696	12.0244
0.177199	10.3754
0.156046	10.4023
0.129115	10.0121
0.129115	10.0121
0.0964143	9.62918
0.0675236	7.54334
0.0675236	7.54334
0.0482752	6.71879
0.375371	14.7928
0.436944	16.4125

File: jacs.5b11034_page_4_Zn-bpdc-12a(bpy)_ads.txt
# Relative Pressure (p/p0)    Quantity Adsorbed
0.00528464	 2.6384
0.0322163	3.76217
0.0591123	4.53915
0.085994	5.17647
0.112867	5.72959
0.139733	6.21436
0.166596	6.67593
0.193449	7.02645
0.220299	7.35866
0.245931	7.6964
0.278879	8.06273
0.300843	8.29583
0.349644	8.72306
0.398444	9.15156
0.450918	9.73463
0.500957	10.3564
0.549793	11.1333
0.601088	12.1097
0.649965	13.2781
0.70132	14.8443
0.740484	16.3839
0.769877	17.7354
0.806109	19.2177
0.833778	20.397
0.861437	21.4876
0.887384	22.5162
0.913106	23.7259
0.937069	25.0796
0.956031	26.2866
0.969613	27.9755
0.982943	29.8497
0.990777	32.2794

File: jacs.5b11034_page_4_Zn-bpdc-12a(bpy)_des.txt
# Relative Pressure (p/p0)    Quantity Adsorbed
0.00606037	 5.4393
0.0325361	6.86999
0.0594737	8.05217
0.0863866	8.99348
0.113277	9.71252
0.140153	10.3019
0.169773	10.8928
0.191075	11.3004
0.227133	12.1828
0.254212	12.6567
0.300183	13.7295
0.352671	14.4534
0.379617	15.7109
0.401613	16.2538
0.439616	18.3586
0.463531	20.716
0.507143	23.0907
0.531523	23.1086
0.581503	23.1583
0.650993	23.274
0.700966	23.2534
0.74121	23.445
0.770477	23.5689
0.802185	23.7244
0.829021	23.9223
0.855868	24.2275
0.884786	24.345
0.908942	24.7218
0.936502	26.0336
0.961996	27.3926
0.978296	29.4389
0.990289	32.6158
0.987336	30.4251
0.993488	34.9352
0.988673	35.521

File: jacs.5b12516-si_page_14_JLU-Liu23_ads.txt
# Relative Pressure (p/p0)    Quantity Adsorbed
-0.003125	 10.8033
-0.003125	24.8972
-0.009375	34.9602
-0.003125	47.0449
-0.003125	57.7831
0.0	71.8792
-0.003125	83.2865
0.0	96.0403
0.0	106.107
0.003125	117.519
-0.003125	128.924
0.0	141.007
0.0	151.074
0.003125	169.868
0.03125	175.927
0.08125	180.659
0.08125	180.659
0.10625	182.018
0.1625	182.727
0.246875	184.797
0.3	184.832
0.346875	184.864
0.4125	184.237
0.459375	184.939
0.5125	184.975
0.55625	185.004
0.615625	185.044
0.659375	185.073
0.765625	184.474
0.765625	184.474
0.81875	182.496
0.871875	183.874
0.915625	183.232
0.94375	182.58

File: jacs.5b12516-si_page_14_JLU-Liu23_des.txt
# Relative Pressure (p/p0)    Quantity Adsorbed
1.00312	 184.633
1.00312	184.633
0.96875	184.61
0.934375	183.245
0.909375	183.899
0.88125	183.88
0.853125	183.861
0.83125	183.175
0.784375	183.815
0.784375	183.815
0.734375	183.781
0.684375	184.419
0.625	184.379
0.58125	184.35
0.534375	184.318
0.4875	184.958
0.428125	184.247
0.378125	184.214
0.334375	184.184
0.284375	183.479
0.228125	184.113
0.20625	184.098
0.140625	183.383
0.025	175.252
-0.003125	150.401

File: jacs.6b00695-si_page_20_CIAC-115_ads.txt
# Relative Pressure (p/p0)    Quantity Adsorbed
-0.00757402	 106.27
-0.00689408	92.2959
-0.00891321	81.79
-0.00664953	69.382
-0.00840796	58.3288
-0.00646497	45.9101
-0.00658027	33.5412
-0.00656317	21.9503
-0.00627802	10.1453
-0.00644636	117.001
0.00162034	140.24
0.0153464	140.178
0.0249521	156.195
0.0556887	166.604
0.0732861	169.559
0.0913784	173.278
0.128391	179.363
0.146902	182.188
0.165417	184.746
0.183938	187.004
0.238568	194.013
0.289088	199.722
0.339612	205.189
0.388457	210.24
0.437292	215.811
0.487807	221.769
0.536939	227.857
0.587135	234.516
0.636252	241.375
0.686084	248.402
0.73524	255.952
0.785721	263.763
0.803485	265.86
0.821506	267.815
0.8405	271.846
0.859012	274.615
0.877521	277.5
0.896024	280.727
0.91451	284.876
0.933022	287.625
0.950891	288.644
0.974881	298.413

File: jacs.6b00695-si_page_20_CIAC-115_des.txt
# Relative Pressure (p/p0)    Quantity Adsorbed
0.977754	 309.56
0.952078	306.991
0.891031	304.468
0.891031	304.468
0.865307	304.502
0.846014	304.527
0.817098	303.263
0.79459	303.293
0.743189	300.757
0.695029	296.917
0.64682	295.678
0.592204	293.147
0.540851	288.009
0.492666	285.47
0.444553	279.027
0.396416	273.885
0.351519	267.438
0.293783	259.706
0.242502	250.665
0.191293	237.721
0.136892	223.479

File: jacs.6b02030-si_page_2_UTSA-74a_ads.txt
# Relative Pressure (p/p0)    Quantity Adsorbed
-0.00279848	 99.3532
-0.00127031	151.319
0.000265245	76.2291
0.00629202	197.313
0.00301521	179.365
0.00284911	141.924
0.00284911	131.729
0.00245045	120.783
0.00284911	110.992
0.00284911	88.0093
0.00245045	65.9926
0.00245045	55.4401
0.00245045	45.0258
0.00245045	18.9901
0.00938259	205.523
0.00351353	7.77372
0.00451016	0.577606
0.00484237	99.3648
0.00683564	192.456
0.0208834	204.132
0.0736469	211.5
0.0867139	212.183
0.103936	213.839
0.111909	213.978
0.132646	215.41
0.141049	216.038
0.174491	217.86
0.185565	218.89
0.207666	219.076
0.222893	219.824
0.233108	220.851
0.234732	218.72
0.269282	223.329
0.27378	221.216
0.281242	222.363
0.305351	224.304
0.316678	223.408
0.33368	224.851
0.349013	225.422
0.364073	225.654
0.379281	226.266
0.391979	227.008
0.413993	228.083
0.427414	228.175
0.443361	228.986
0.459572	229.902
0.470449	230.162
0.487212	230.733
0.503408	231.798
0.514635	232.206
0.530031	232.608
0.546521	233.377
0.56196	234.535
0.572974	234.794
0.589533	235.51
0.605396	236.4
0.61766	237.121
0.631724	237.457
0.649175	238.322
0.664281	239.326
0.675997	239.849
0.691015	240.564
0.708085	241.463
0.719908	242.334
0.734876	242.658
0.751357	243.446
0.764532	245.35
0.778312	244.731
0.794175	245.191
0.809826	246.076
0.823144	246.943
0.837258	247.068
0.854689	247.308
0.862212	249.774
0.874902	248.249
0.89159	248.614
0.90333	249.722
0.918247	249.706
0.934235	249.488
0.949318	251.265
0.960178	251.331
0.978884	250.916
0.996691	253.972
1.00546	254.545

File: jacs.6b02030-si_page_2_UTSA-74a_des.txt
# Relative Pressure (p/p0)    Quantity Adsorbed
0.972222	 253.087
0.921081	252.88
0.939922	254.823
0.88609	250.873
0.88609	250.873
0.848407	252.587
0.816107	251.524
0.767657	250.395
0.729974	250.243
0.686908	249.136
0.654608	247.139
0.60885	246.021
0.525409	244.751
0.560401	245.826
0.485034	238.055
0.44466	235.092
0.425818	233.149
0.401593	231.185
0.38006	231.098
0.36391	231.033
0.339686	230.935
0.320844	229.926
0.302003	227.983
0.267011	227.842
0.23202	225.834
0.197028	224.759
0.164729	222.762
0.132429	222.632
0.100129	221.568
0.0732127	220.526
0.0166882	211.898
-0.00215332	205.288
-0.00484496	191.277

File: jacs.6b03263-si_page_12_PCN-133-65%DCDPS_ads.txt
# Relative Pressure (p/p0)    Quantity Adsorbed
-0.00090209	 175.406
-0.00090209	156.193
-0.00056774	135.733
-0.00056774	114.251
-0.000847957	92.1841
-0.000847957	69.128
-0.00102628	45.4257
-0.00141427	22.5941
0.000595586	242.814
0.000272912	216.69
0.000272912	193.636
0.00203064	287.102
0.00169629	265.693
0.00319396	306.705
0.00729904	323.817
0.0134431	333.606
0.00867943	244.457
0.00997862	289.082
0.00932902	267.346
0.0193092	340.812
0.0112778	308.445
0.0445218	354.922
0.0725021	362.766
0.0900411	366.927
0.105174	370.123
0.115912	371.653
0.132332	373.509
0.14968	376.122
0.164936	378.152
0.176175	379.702
0.191865	380.618
0.207802	382.175
0.219857	383.961
0.233196	384.72
0.249259	385.379
0.26462	387.133
0.276212	388.119
0.291673	388.491
0.30948	389.843
0.324924	390.741
0.335534	391.579
0.351436	391.661
0.369243	392.988
0.384686	393.726
0.395438	394.334
0.411022	394.779
0.428236	395.483
0.442727	396.268
0.454041	396.606
0.470121	396.797
0.486281	397.047
0.497391	398.143
0.511628	398.384
0.528274	398.725
0.542538	399.329
0.553148	399.814
0.570082	399.616
0.586319	399.935
0.59733	400.818
0.611243	400.335
0.627905	401.043
0.642424	401.618
0.654116	401.852
0.670196	401.819
0.685928	402.184
0.697368	402.776
0.711216	402.627
0.728349	402.653
0.742839	403.259
0.753814	403.611
0.769775	403.218
0.786352	403.614
0.797807	404.721
0.811114	404.435
0.827856	404.458
0.843408	404.679
0.853852	405.297
0.870271	404.871
0.888077	405.035
0.902621	405.656
0.913614	405.98
0.929575	405.526
0.945694	405.987
0.953932	406.523

File: jacs.6b03263-si_page_18_PCN-133-20%_ads.txt
# Relative Pressure (p/p0)    Quantity Adsorbed
-0.000230188	 18.4851
0.00543573	51.0845
0.00410674	41.9951
0.00658752	20.5637
0.00662978	27.2061
0.0132435	64.5383
0.0228281	69.8607
0.0340171	72.112
0.045397	73.6823
0.0560034	74.7987
0.0695159	75.6414
0.0790862	76.1621
0.0922097	76.6377
0.104538	77.3366
0.114305	77.6767
0.129311	78.0739
0.138537	78.6241
0.152082	78.5669
0.162706	78.9242
0.174236	79.3404
0.187263	79.7677
0.195957	80.1365
0.209931	80.1455
0.219218	80.7108
0.232513	80.7468
0.243952	81.0338
0.254856	81.3001
0.267881	81.5339
0.276089	81.5913
0.290439	81.7995
0.300096	82.2286
0.312907	82.1348
0.325011	82.2597
0.33503	82.6078
0.35127	82.4129
0.360555	82.847
0.374039	82.6088
0.384607	82.5416
0.395422	82.9497
0.409949	82.8899
0.418746	83.3989
0.432819	83.2317
0.442759	83.1812
0.455035	83.2152
0.468434	83.107
0.477408	83.6354
0.490566	83.6932
0.499356	83.9426
0.513428	83.4742
0.523369	83.7273
0.535647	83.9416
0.549045	83.7417
0.557509	84.1016
0.571175	84.0152
0.579966	84.3255
0.593885	84.0134
0.604322	84.2232
0.616255	84.0479
0.629291	83.7322
0.638118	84.3991
0.651778	84.1126
0.66079	84.6319
0.674495	84.4801
0.684932	84.7079
0.696865	84.5921
0.709904	84.6825
0.718394	85.0016
0.732394	84.7704
0.74156	84.9507
0.755103	84.5932
0.765748	84.6459
0.777003	84.8292
0.79311	84.6353
0.802276	84.8559
0.815822	84.9171
0.826465	84.6475
0.837722	85.1889
0.853773	85.2369
0.863056	85.2492
0.87635	85.1749
0.888674	85.1824
0.898439	85.2261
0.913443	85.2382
0.922667	85.5084
0.936021	85.1978
0.947153	85.3946
0.958113	85.788

File: jacs.6b03263-si_page_18_PCN-133-40%_ads.txt
# Relative Pressure (p/p0)    Quantity Adsorbed
0.00888497	 52.5943
0.0144938	132.055
0.010619	119.48
0.0102528	103.054
0.0176749	141.369
0.0283054	143.329
0.0398392	146.252
0.051367	148.214
0.0625807	149.207
0.0741631	150.532
0.0872845	152.248
0.0960903	153.102
0.0974452	150.889
0.110688	153.956
0.1209	154.293
0.133064	154.965
0.145545	155.983
0.155113	156.054
0.170376	156.827
0.178823	156.917
0.194375	157.844
0.208055	158.283
0.217067	158.621
0.230213	158.979
0.239546	159.116
0.252903	159.397
0.263649	159.537
0.275218	160.047
0.288331	160.555
0.297392	160.517
0.310831	160.68
0.320412	160.883
0.333301	161.326
0.34485	160.956
0.355611	161.394
0.371553	161.437
0.381133	161.477
0.394017	161.254
0.406567	161.932
0.416332	162.023
0.431335	161.911
0.440733	162.221
0.453914	162.044
0.46466	162.116
0.476225	162.145
0.48968	161.989
0.498692	162.316
0.511836	162.358
0.521169	162.533
0.534301	162.229
0.545971	162.5
0.556835	162.573
0.569926	162.631
0.57861	162.543
0.592292	162.757
0.60217	162.834
0.614659	162.383
0.626896	161.892
0.637218	162.291
0.650531	162.351
0.659613	162.461
0.672897	162.398
0.682629	162.383
0.695265	162.236
0.707391	162.217
0.717826	162.366
0.732719	162.269
0.742226	162.543
0.755405	161.913
0.766379	161.841
0.777715	161.955
0.790455	161.704
0.80018	161.881
0.813323	161.797
0.82283	162.096
0.835789	161.731
0.847356	162.069
0.858323	162.131
0.871414	162.149
0.880098	162.076
0.893932	162.058
0.903264	162.085
0.916397	161.961
0.928146	161.844
0.938929	162.012
0.952019	161.916
0.960704	161.939

File: jacs.6b03263-si_page_18_PCN-133-55%_ads.txt
# Relative Pressure (p/p0)    Quantity Adsorbed
-0.00379824	 39.4428
-0.0081876	29.0348
-0.00350065	16.9794
-0.00350065	8.55511
-0.000983589	167.711
-0.000524813	105.017
-0.00141757	55.9925
-0.000376021	169.633
-0.000376021	131.927
-0.000144567	83.295
0.0046479	145.812
0.0109584	189.595
0.00726197	165.799
0.0138268	198.934
0.0106643	178.201
0.0252788	201.676
0.0361937	205.616
0.0480558	208.561
0.0585233	210.138
0.0706969	211.988
0.0831789	214.156
0.0928942	214.784
0.108864	216.526
0.118039	217.196
0.131327	218.283
0.142923	219.029
0.153304	219.913
0.168289	220.993
0.177407	221.497
0.190695	221.993
0.20177	222.819
0.212672	223.425
0.227657	224.215
0.236947	224.845
0.250252	224.983
0.260811	225.571
0.27226	225.983
0.285615	226.631
0.294258	226.981
0.307798	227.583
0.317146	227.995
0.330262	228.056
0.340872	228.487
0.352459	229.011
0.365813	229.281
0.374518	229.594
0.387997	229.989
0.397173	230.248
0.41024	230.496
0.42193	230.801
0.432438	230.941
0.447365	231.5
0.456167	231.598
0.470018	231.863
0.480904	232.166
0.492026	232.302
0.50507	232.549
0.513691	232.643
0.527564	232.942
0.53674	233.246
0.550217	233.121
0.560322	233.249
0.572225	233.69
0.585212	233.807
0.59415	234.121
0.607763	234.013
0.616939	234.303
0.630416	234.332
0.641302	234.669
0.652203	234.671
0.665468	234.915
0.674483	235.102
0.687853	235.192
0.697138	235.385
0.710426	235.568
0.722021	235.525
0.732402	235.858
0.747387	236.092
0.756687	236.14
0.769983	236.052
0.780087	235.991
0.791991	236.444
0.805035	236.501
0.813814	237.14
0.8155	235.139
0.828461	236.742
0.838067	237.081
0.850565	236.788
0.862977	237.102
0.872821	237.275
0.886954	237.491
0.895947	237.444
0.90955	237.299
0.919591	237.492
0.931806	237.664
0.944304	237.816
0.953353	238.188
0.95472	235.139

File: jacs.6b03263-si_page_18_PCN-133-60%_ads.txt
# Relative Pressure (p/p0)    Quantity Adsorbed
-0.00303196	 125.374
-0.00350065	62.8772
-0.00303196	32.8157
-0.00245911	211.725
-0.00245911	186.264
-0.00245911	100.757
0.00138659	275.411
0.000248905	151.867
0.00274861	250.564
0.00555277	296.382
0.0094713	273.833
0.0141312	295.441
0.0121225	289.781
0.0193482	311.451
0.0198867	304.741
0.0303022	316.149
0.0256626	306.397
0.0412857	321.251
0.0527427	324.958
0.0647783	328.021
0.074673	328.935
0.0875824	332.68
0.0973902	333.409
0.110028	335.663
0.121762	337.093
0.132694	338.062
0.145318	340.034
0.154872	340.299
0.167781	342.232
0.177988	342.525
0.190226	344.029
0.202074	344.942
0.212892	345.719
0.2257	347.114
0.234952	347.505
0.247759	348.597
0.258274	349.024
0.270425	349.696
0.282189	350.568
0.292871	350.909
0.307348	351.885
0.317555	352.231
0.329793	352.941
0.341446	353.499
0.352459	353.871
0.365267	354.792
0.374518	355.042
0.387547	355.453
0.397949	355.824
0.409992	356.302
0.422213	356.891
0.432438	357.278
0.445173	357.67
0.454717	357.712
0.467746	358.247
0.478148	358.42
0.490191	358.829
0.502234	359.111
0.512636	359.396
0.525665	359.823
0.534491	359.909
0.547724	360.245
0.558239	360.474
0.57039	360.71
0.582433	361.143
0.592835	361.343
0.60646	361.526
0.61634	361.734
0.628716	361.886
0.640382	362.046
0.65163	362.212
0.664064	362.618
0.673561	362.646
0.68647	362.748
0.696482	363.136
0.708915	363.092
0.72067	363.13
0.731829	363.569
0.744458	363.87
0.754085	364.062
0.766669	364.08
0.777045	364.253
0.789114	364.48
0.800766	364.523
0.81178	364.582
0.824657	364.675
0.834284	364.806
0.846868	364.986
0.857075	365.033
0.869313	365.291
0.881076	365.321
0.891979	365.606
0.905212	365.711
0.914483	365.919
0.927067	366.043
0.937442	366.151
0.949512	366.281
0.956976	366.417

File: jacs.6b03263-si_page_18_PCN-133-65%_ads.txt
# Relative Pressure (p/p0)    Quantity Adsorbed
-0.00284284	 157.097
-0.00284284	137.119
-0.00303196	70.1819
-0.00303196	47.1204
-0.00303196	23.3897
-0.00180129	266.027
-0.00164902	243.323
-0.00164902	217.328
-0.00164902	176.232
-0.00176475	114.411
-0.000665339	287.387
0.00147561	306.592
0.00460024	321.64
0.00530513	23.6898
0.00989062	332.761
0.0170525	340.376
0.0125959	321.125
0.0272249	347.01
0.024621	338.808
0.0381611	352.042
0.0504643	358.526
0.0609263	360.03
0.0722841	362.833
0.0856715	366.318
0.0942819	366.941
0.108755	370.619
0.118039	371.436
0.130858	373.65
0.142923	375.138
0.153772	378.659
0.152731	373.572
0.168232	378.167
0.177407	378.908
0.190474	380.48
0.20177	381.407
0.212892	382.351
0.225917	383.854
0.235135	384.403
0.248321	385.599
0.25784	386.096
0.270673	386.897
0.28249	387.685
0.292893	389.67
0.292819	385.643
0.307798	389.832
0.317156	390.01
0.330041	390.739
0.34101	391.063
0.352459	391.657
0.365847	392.599
0.374518	392.771
0.387997	393.538
0.397173	393.656
0.41024	394.598
0.42193	394.922
0.432438	395.127
0.447365	395.908
0.456723	396.209
0.469608	396.697
0.480892	396.825
0.492026	397.346
0.50507	397.918
0.513691	397.937
0.527455	398.41
0.53674	398.622
0.550028	398.832
0.560776	399.076
0.572225	399.478
0.585212	399.99
0.594284	400.083
0.607654	400.219
0.617185	400.525
0.630006	400.7
0.641499	400.792
0.652424	401.068
0.665448	401.693
0.674483	401.763
0.687646	401.825
0.697736	401.943
0.710205	402.125
0.721698	402.443
0.732402	402.755
0.745667	402.944
0.754682	403.124
0.768052	403.174
0.777806	403.606
0.790156	403.465
0.802093	403.513
0.812601	403.885
0.827529	404.035
0.837095	404.326
0.849772	404.347
0.861068	404.656
0.87219	404.572
0.885145	404.721
0.894249	404.996
0.907619	405.109
0.916904	405.357
0.930191	405.239
0.941254	405.364
0.952168	405.905
0.958886	406.733

File: jacs.6b03263_page_5_PCN-134-5%_ads.txt
# Relative Pressure (p/p0)    Quantity Adsorbed
0.0125135	 54.2788
0.0260858	71.8711
0.0415319	82.5233
0.0534277	93.5429
0.0689114	95.7779
0.0890287	97.7392
0.104721	100.335
0.120691	100.698
0.134773	101.285
0.150934	101.984
0.167956	103.879
0.186358	102.847
0.199573	105.524
0.213709	105.154
0.230889	105.124
0.249878	106.879
0.266603	107.076
0.281975	108.229
0.29631	108.881
0.312235	107.98
0.329239	108.009
0.346832	108.512
0.360707	110.125
0.37481	110.271
0.391446	111.793
0.409535	111.309
0.426887	110.606
0.441194	112.334
0.456361	114.174
0.471698	112.543
0.490214	112.422
0.506287	114.058
0.521682	114.457
0.537328	116.019
0.55242	116.305
0.568951	116.109
0.585759	115.408
0.599919	116.433
0.614725	116.431
0.632072	117.424
0.649751	116.865
0.667531	116.548
0.681059	119.004
0.696435	120.219
0.712561	119.208
0.72861	119.723
0.746131	119.673
0.759246	121.277
0.775483	122.98
0.791728	122.203
0.809286	121.849
0.825583	123.233
0.840592	124.487
0.854834	124.928
0.889574	127.491
0.905692	129.162
0.921065	131.165
0.935436	132.247
0.951959	134.466

File: jacs.6b03263_page_5_PCN-134-10%_ads.txt
# Relative Pressure (p/p0)    Quantity Adsorbed
-0.000363049	 95.6867
0.000482929	235.957
0.0341866	285.24
0.050619	290.908
0.065979	295.428
0.0826582	301.596
0.0955539	303.516
0.111584	304.991
0.129266	307.798
0.145656	310.353
0.159703	312.239
0.174574	313.376
0.19117	314.529
0.208655	315.666
0.224689	317.737
0.23915	318.592
0.25361	319.737
0.270514	320.291
0.287337	321.141
0.303931	322.555
0.317385	322.973
0.332733	324.021
0.349558	324.405
0.366739	325.125
0.382658	327.075
0.396566	327.189
0.41178	327.101
0.429418	327.389
0.446013	328.939
0.461145	329.662
0.474941	330.637
0.490978	330.062
0.508665	331.248
0.525052	332.523
0.539109	333.191
0.553985	332.965
0.570381	333.574
0.58807	333.735
0.6041	335.341
0.618157	336.123
0.633032	335.844
0.649936	336.362
0.667347	336.869
0.683037	338.585
0.696383	338.996
0.71208	338.722
0.729797	338.966
0.746395	339.754
0.761265	340.96
0.775318	341.166
0.791714	341.634
0.80413	292.248
0.808844	342.289
0.813473	292.342
0.825434	343.345
0.839902	343.998
0.854365	344.331
0.871269	344.552
0.888092	345.646
0.904479	347.149
0.918276	347.768
0.933488	348.481
0.950309	350.049
0.95918	352.345

File: jacs.6b03263_page_5_PCN-134-18%_ads.txt
# Relative Pressure (p/p0)    Quantity Adsorbed
0.000420005	 174.706
-0.000322008	136.411
-0.000260715	116.92
0.00346257	189.917
0.00553694	253.996
0.00871666	331.161
0.00780361	295.018
0.00643431	273.36
0.00846918	311.91
0.0140983	388.325
0.0104404	370.69
0.0160539	413.981
0.0214576	447.79
0.0167352	425.868
0.0268848	474.109
0.042079	492.634
0.0345445	476.173
0.0517291	496.556
0.0833016	512.542
0.0926364	515.155
0.124785	522.619
0.140594	526.433
0.153778	527.127
0.170481	529.358
0.187854	531.047
0.20388	533.9
0.218344	535.568
0.232804	537.025
0.249401	537.959
0.26688	540.734
0.282909	542.674
0.296143	543.928
0.311919	543.678
0.329247	545.165
0.346071	545.806
0.361952	547.098
0.375078	547.743
0.390961	548.226
0.408292	549.073
0.425196	549.376
0.439928	549.929
0.453824	550.905
0.470518	550.58
0.487848	551.656
0.504126	552.92
0.518703	553.693
0.533167	553.729
0.549768	553.246
0.567254	554.161
0.583284	555.588
0.596521	555.776
0.612216	556.157
0.62912	556.518
0.646453	556.673
0.662223	558.221
0.67546	558.393
0.691345	558.275
0.708676	559.145
0.725572	560.207
0.741033	561.515
0.754507	561.516
0.770901	561.121
0.788031	561.405
0.804627	562.558
0.818678	563.443
0.833549	564.362
0.850454	564.578
0.867637	564.361
0.883667	566.074
0.897464	566.66
0.912598	567.063
0.929754	567.759
0.946831	568.737
0.956334	571.719

File: jacs.6b03263_page_5_PCN-134-22%_ads.txt
# Relative Pressure (p/p0)    Quantity Adsorbed
-0.00156464	 280.167
-0.00201933	219.067
-0.000991431	196.924
-0.00166222	175.828
-0.00176484	138.138
-0.000551784	118.061
-0.00454646	108.512
-0.00158545	81.0922
-0.00153223	64.1695
-0.00147894	47.2224
-0.00142546	30.2181
-0.00135559	7.99743
-0.000789448	323.148
0.00199562	399.294
0.00237609	375.436
0.00205673	339.865
0.00434094	416.661
0.00576381	451.419
0.00763012	474.848
0.00979125	496.469
0.0114414	509.49
0.0167233	556.608
0.016583	474.262
0.0179665	491.405
0.0200623	510.569
0.0242375	554.138
0.0277745	572.101
0.0398658	612.369
0.0341815	591.592
0.0492021	614.523
0.0704718	630.957
0.0861973	636.472
0.100339	636.941
0.126777	642.063
0.135348	645.48
0.162186	647.86
0.179644	653.251
0.192411	652.638
0.210466	653.914
0.226423	655.442
0.240952	659.829
0.256761	660.713
0.271311	658.311
0.284073	659.978
0.305541	661.067
0.320994	662.87
0.334469	662.752
0.350353	663.224
0.367684	663.922
0.384586	664.854
0.399457	665.968
0.413515	666.156
0.430091	666.963
0.447052	667.078
0.463626	668.187
0.477684	668.754
0.492558	668.734
0.509465	668.376
0.526648	668.362
0.542678	669.865
0.556148	671.297
0.571686	671.196
0.588765	671.499
0.605924	671.64
0.621057	672.135
0.634854	672.743
0.650739	672.537
0.668072	672.728
0.684968	673.551
0.699846	674.386
0.714012	675.169
0.730607	675.012
0.747765	675.336
0.764017	676.133
0.778074	676.86
0.792949	676.752
0.809549	676.601
0.826814	677.787
0.842956	678.863
0.856301	679.546
0.872076	679.39
0.889157	679.043
0.906233	680.265
0.922004	681.723
0.935349	682.388
0.950955	682.438

File: jacs.6b03263_page_5_PCN-134-25%_ads.txt
# Relative Pressure (p/p0)    Quantity Adsorbed
-0.00138572	 303.262
-0.00150157	152.369
-0.000584009	-8.81869
0.00494796	431.772
0.0132562	532.304
0.00752478	155.138
0.0131133	434.897
0.0261109	598.342
0.034869	601.529
0.0434108	627.779
0.0583119	637.892
0.0720972	647.351
0.0890878	653.247
0.107268	661.83
0.125175	663.418
0.137879	667.088
0.153331	669.297
0.170033	671.787
0.186613	675.454
0.204192	675.957
0.217893	679.22
0.232354	680.105
0.249395	682.431
0.266211	683.648
0.282434	686.26
0.295356	687.416
0.311467	687.366
0.328734	688.847
0.345272	690.393
0.361151	691.706
0.374733	692.161
0.390816	692.855
0.408032	693.772
0.42474	694.495
0.439318	696.095
0.453775	696.979
0.470202	697.273
0.486957	698.327
0.503668	698.695
0.517835	699.117
0.532713	700.011
0.549291	699.892
0.56663	701.605
0.582714	702.129
0.596881	702.714
0.611835	702.603
0.628912	703.253
0.64568	703.931
0.661128	705.292
0.675737	706.54
0.691532	706.216
0.708409	706.2
0.725117	706.724
0.739696	708.18
0.754154	708.622
0.770621	709.276
0.787581	709.518
0.804158	709.916
0.818214	710.795
0.833089	710.69
0.849937	711.682
0.866291	713.102
0.88246	713.845
0.897667	715.35
0.912133	714.752
0.929294	714.177
0.946059	715.592
0.955153	718.732