Folder: Experimental-Data-Digitalization/data/nitrogen-adsorption-isotherms (part 14)

File: jacs.6b03263_page_5_PCN-134-31%_ads.txt
# Relative Pressure (p/p0)    Quantity Adsorbed
-0.000733239	 95.7731
-6.05309e-05	236.098
0.00499714	353.952
0.00918703	455.021
0.0157185	520.645
0.0180697	458.592
0.0243337	523.564
0.0347652	548.806
0.0486576	559.107
0.0596158	567.89
0.0673089	570.19
0.119904	585.835
0.134802	590.828
0.150306	590.597
0.168128	591.829
0.182897	593.897
0.197622	595.339
0.212494	596.12
0.229201	597
0.246356	598.367
0.262812	599.757
0.276077	600.823
0.291617	600.221
0.308696	600.688
0.325851	601.942
0.341305	603.436
0.354889	603.549
0.370666	602.91
0.387999	602.836
0.404903	603.256
0.419362	604.847
0.43394	605.255
0.450087	604.596
0.467099	606.345
0.483597	606.62
0.497811	607.526
0.512876	607.049
0.529585	607.021
0.546744	607.305
0.562886	608.239
0.576232	608.572
0.591927	608.635
0.609086	608.737
0.626243	609.484
0.641697	611.069
0.65528	611.302
0.671565	610.458
0.68839	610.828
0.705285	612.059
0.72035	613.268
0.734223	612.803
0.750801	612.74
0.767759	613.747
0.784334	614.742
0.798391	615.412
0.81327	615.723
0.830172	614.969
0.847505	615.097
0.863273	617.397
0.876854	618.228
0.892313	618.324
0.909726	618.147
0.926627	619.435
0.942078	621.918
0.952044	621.785

File: jacs.6b04608-si_page_17_NPF-200 pristine_ads.txt
# Relative Pressure (p/p0)    Quantity Adsorbed
0.00172495	 128.365
0.000651732	85.9053
0.00367223	56.6584
0.00519907	225.797
0.00438586	171.938
0.00435267	30.1101
0.00831914	200.199
0.010709	251.209
0.011406	318.256
0.01269	378.773
0.0135635	345.251
0.0152397	436.856
0.0153338	406.868
0.0171198	502.34
0.0168827	469.332
0.0192726	568.402
0.0204924	606.127
0.0221935	648.875
0.0216624	622.355
0.0245377	681.285
0.0257922	720.924
0.0295511	755.09
0.0310369	788.832
0.0343087	817.838
0.0382039	850.69
0.0417105	880.456
0.0456936	903.019
0.0502117	934.238
0.055542	961.561
0.0606343	989.638
0.0646132	1013.63
0.0744615	1072.75
0.0795497	1095.9
0.0854736	1120.07
0.09319	1145.99
0.101971	1169.68
0.110042	1193.43
0.117403	1216.85
0.126779	1236.59
0.135996	1258.64
0.146961	1277.84
0.168239	1294.81
0.178553	1299.02
0.190775	1305.96
0.200325	1308.02
0.212053	1315.07
0.223007	1319.05
0.234408	1320.86
0.244914	1322.49
0.255013	1325.51
0.26682	1330.44
0.277774	1332.45
0.288727	1335.67
0.299681	1335.89
0.309781	1338.26
0.321588	1342.62
0.332541	1344.53
0.344269	1345.25
0.353673	1346
0.365401	1349.6
0.376355	1351.8
0.387308	1352.58
0.39914	1352.21
0.408767	1353.13
0.420169	1356.52
0.431122	1359
0.442075	1359.5
0.453029	1358.03
0.463129	1360.26
0.474936	1362.41
0.485889	1362.35
0.497696	1363.9
0.507559	1362.82
0.51875	1366.29
0.529952	1366.4
0.540656	1370.3
0.552239	1368.33
0.56163	1367.92
0.573517	1370.4
0.58447	1373.15
0.595424	1373.09
0.606377	1370.73
0.616641	1371.78
0.628284	1374.87
0.639237	1375.94
0.651124	1374
0.660696	1374.16
0.672098	1375.75
0.683051	1377.94
0.694005	1379.76
0.705195	1376.11
0.714978	1376.87
0.726865	1379.57
0.737818	1379.51
0.749625	1378.49
0.759725	1379.25
0.770264	1381.82
0.781632	1382.36
0.792586	1382.3
0.804418	1381.14
0.813746	1381.86
0.817231	1376.48
0.827437	1382.1
0.838391	1382.04
0.850034	1383.17
0.860298	1382.24
0.871251	1385.52
0.882205	1385.92
0.893158	1385.86
0.90499	1384.09
0.914436	1383.73
0.926018	1385.67
0.936972	1385.71
0.947925	1388.56
0.959116	1385.04
0.967298	1384.6

File: jacs.6b04608-si_page_17_NPF-200 water_ads.txt
# Relative Pressure (p/p0)    Quantity Adsorbed
0.0308235	 552.069
0.0323171	586.145
0.0343087	621.096
0.0367981	665.797
0.0389888	698.482
0.041279	729.937
0.0458845	765.299
0.0494715	800.131
0.053007	828.175
0.0605543	877.681
0.0634847	903.4
0.0692484	928.48
0.0735751	954.09
0.0774112	977.785
0.0852035	995.775
0.0983144	1041.09
0.107118	1062.41
0.117066	1084.09
0.128292	1105.74
0.138366	1117.23
0.14932	1128.2
0.160273	1141
0.170348	1145.05
0.182628	1156.05
0.193134	1160.91
0.203639	1164.45
0.21504	1173.74
0.226231	1178.25
0.236173	1180.37
0.248349	1187.13
0.258269	1188.9
0.269808	1196.53
0.280761	1200.04
0.292163	1202.22
0.302668	1204.75
0.312768	1207.74
0.324575	1213.5
0.335528	1216.44
0.346482	1219.85
0.357959	1221.9
0.367642	1224.68
0.371708	1224.25
0.381417	1231.51
0.393096	1236.41
0.403003	1238.04
0.414194	1244.73
0.425147	1248.98
0.437034	1252.37
0.447054	1254.02
0.457129	1255.4
0.468795	1260.97
0.479915	1264.35
0.491722	1266.11
0.501822	1267.47
0.512526	1271.39
0.52406	1273.22
0.534682	1277.38
0.546565	1277.31
0.556352	1278.04
0.567542	1282.07
0.578496	1283.33
0.589449	1284.77
0.60064	1285.17
0.610502	1285.73
0.622309	1289.74
0.633263	1290.25
0.64507	1289.59
0.65517	1289.98
0.666123	1294
0.677077	1294.13
0.68803	1294.07
0.699221	1292.63
0.709003	1294.27
0.72089	1296.98
0.731844	1296.92
0.743487	1296.14
0.753751	1295.57
0.764289	1298.02
0.775658	1300.8
0.786611	1300.74
0.798339	1298.2
0.807889	1298.12
0.819471	1300.55
0.830425	1300.49
0.841793	1300.17
0.852332	1299.85
0.862432	1301.19
0.874239	1303.34
0.885192	1303.28
0.897079	1301.98
0.906651	1301.5
0.918052	1303.09
0.929006	1304.72
0.939959	1306.07
0.951361	1304.14
0.958978	1304

File: jacs.6b04608-si_page_18_NPF-201_ads.txt
# Relative Pressure (p/p0)    Quantity Adsorbed
-0.00376227	 85.1647
-0.00354149	81.0346
-0.00372268	76.7391
-0.00394208	67.3334
-0.00327503	62.6633
-0.0041886	58.5574
-0.00376227	49.504
-0.00424612	44.8067
-0.00395851	34.9965
-0.00429758	29.5803
-0.00372268	24.6025
-0.00372268	19.6894
-0.00394208	14.7715
-0.00382621	9.87129
-0.00338331	5.45485
-0.00272689	89.025
-0.000622314	103.639
0.00340413	116.806
0.0131251	118.247
0.0250237	124.45
0.054655	130.608
0.0726015	134.356
0.0835791	135.569
0.0938611	137.536
0.106021	138.527
0.11787	139.573
0.129374	140.178
0.140911	140.589
0.153499	141.554
0.164922	142.203
0.175966	142.868
0.186967	143.234
0.198874	143.496
0.211039	144.117
0.223076	144.691
0.234095	144.793
0.246026	145.053
0.257415	145.564
0.269002	146.116
0.284015	145.003
0.29699	146.737
0.308609	146.79
0.320179	146.876
0.332537	147.149
0.344628	147.381
0.357777	147.638
0.380526	147.462
0.411291	148.317
0.425606	148.331
0.436983	148.299
0.448384	148.272
0.459313	148.269
0.470529	148.868
0.483601	148.493
0.495378	148.617
0.506767	148.22
0.518674	148.737
0.530178	148.809
0.542229	148.785
0.552957	148.579
0.563885	148.493
0.575102	148.806
0.586434	148.396
0.598513	148.456
0.611973	148.239
0.624627	148.282
0.636131	148.242
0.649442	148.38
0.663419	147.797
0.673876	148.313
0.684334	148.278
0.707687	148.003
0.718961	147.78
0.731184	147.298
0.750482	147.471
0.771453	147.251
0.7814	146.833
0.796464	146.209
0.808449	147.218
0.865834	146.782
0.876913	146.672
0.888302	146.275
0.899044	146.463
0.910217	146.59
0.922239	146.27
0.957787	146.297
0.967819	142.962
0.968469	145.886
0.976309	143.848

File: jacs.6b04608-si_page_18_NPF-201_des.txt
# Relative Pressure (p/p0)    Quantity Adsorbed
0.970802	 144.717
0.960938	144.722
0.947128	144.731
0.929372	145.153
0.929372	145.153
0.917535	145.572
0.90767	145.578
0.899779	145.583
0.878078	145.596
0.864268	145.192
0.807055	146.462
0.799164	146.466
0.773516	146.482
0.753788	146.493
0.753788	146.493
0.724195	145.687
0.714331	146.517
0.700521	146.525
0.674874	146.54
0.674874	146.54
0.635417	146.975
0.635417	146.975
0.617661	147.81
0.605824	146.581
0.59596	146.587
0.572285	146.601
0.558475	146.609
0.542693	147.03
0.528883	147.039
0.515073	147.047
0.505208	147.053
0.489426	147.062
0.463778	146.665
0.449968	147.085
0.442077	147.09
0.442077	147.09
0.420376	147.103
0.404593	147.112
0.382891	146.713
0.367109	146.723
0.34738	146.322
0.329624	145.921
0.294113	144.706
0.294113	144.706
0.260574	143.49
0.260574	143.49
0.274384	145.13
0.248737	143.497
0.234927	143.505
0.217172	143.104
0.20928	142.697
0.199416	142.702
0.191525	142.295
0.173769	140.658
0.157986	140.255
0.142203	139.853
0.106692	137.402
0.120502	138.63
0.0889362	135.353
0.0731534	133.714
0.0613163	132.073
0.0455335	130.435
0.0317235	126.324
0.0179135	120.976
0.0179135	120.976
0.00804924	115.215

File: jacs.6b04608_page_2_NPF-200_ads.txt
# Relative Pressure (p/p0)    Quantity Adsorbed
-0.004402	 11.1737
0.00141468	119.616
-0.00193331	278.271
0.0145491	462.308
0.0198633	582.831
0.0243904	683.237
0.0325709	793.538
0.0422446	874.23
0.0554604	953.298
0.0704792	1034.85
0.0872992	1118.71
0.107519	1186.19
0.134918	1260.23
0.154881	1301.13
0.246074	1349.42
0.982606	1403.56
0.959144	1403.41
0.92395	1403.19
0.893449	1403
0.86764	1402.84
0.839444	1398.32
0.792477	1393.69
0.745594	1397.74
0.715093	1397.55
0.675123	1388.61
0.632933	1392.69
0.586008	1392.4
0.515495	1378.94
0.550814	1392.18
0.459144	1374.24
0.421562	1369.67
0.374595	1365.04
0.313551	1360.31

File: jacs.6b04608_page_2_NPF-200_des.txt
# Relative Pressure (p/p0)    Quantity Adsorbed
0.021503	 374.398
0.0214112	272.201
0.0189138	208.01
0.256915	1331.63
0.297994	1335.16
0.334911	1338
0.374157	1349.23
0.413355	1355.58
0.454894	1371.62
0.494136	1382.49
0.532303	1385.83
0.568728	1395.12
0.619941	1379.19
0.656364	1384.71
0.723211	1388.56
0.803951	1388.85
0.883072	1387.8
0.961449	1398.47
0.984705	1387.27
0.221587	1312
0.176883	1298.7
0.157903	1276.88
0.136368	1233.34
0.129078	1207.25
0.102432	1120.28
0.102432	1120.28
0.1194	1176.81
0.1194	1176.81
0.090114	1059.44
0.090114	1059.44
0.0927535	1089.84
0.0731037	998.568
0.0731037	998.568
0.0703385	955.147
0.0628389	907.358
0.0628389	907.358
0.0504793	842.176
0.0477141	798.756
0.0471694	742.329
0.0348517	681.488
0.0341394	607.699
0.0337205	564.294
0.0308296	507.852
0.0254667	438.374
0.0219893	321.165
0.839402	1393.98
0.907568	1407.43
0.759672	1397.82
0.593047	1392.44

File: jacs.6b06759-si_page_12_Zr-MTBC_ads.txt
# Relative Pressure (p/p0)    Quantity Adsorbed
-0.00166018	 53.0156
-0.00196631	44.3957
-0.00187337	37.6333
-0.00187337	31.3653
-0.00187337	25.0972
-0.00187337	18.8291
-0.00187337	12.561
-0.00187337	6.29294
-0.00237676	1.00544
-0.00066525	65.3978
-0.00202439	59.5071
0.000542875	122.557
0.000542875	117.043
0.00156513	177.555
0.00223425	172.355
0.00134829	161.653
0.00124761	155.993
0.00324677	193.746
-6.11873e-05	187.383
0.00493027	205.006
0.00587876	213.54
0.00708688	220.566
0.00779162	227.148
0.001751	109.789
0.001751	103.521
0.001751	97.2531
0.001751	90.985
0.001751	82.4376
0.00295912	149.106
0.00295912	140.131
0.0189668	257.399
0.0182254	252.205
0.0144363	238.126
0.0162485	243.964
0.0282026	277.243
0.0388311	287.476
0.0412567	281.862
0.051543	288.403
0.0642513	293.375
0.0782656	297.115
0.0923603	302.303
0.104522	302.978
0.118456	305.909
0.132228	308.203
0.146273	308.328
0.158807	310.621
0.171828	312.869
0.183876	314.119
0.198675	315.354
0.192635	312.114
0.211481	316.106
0.224771	317.884
0.23951	318.782
0.251289	319.317
0.264518	320.624
0.278412	322.259
0.294344	323.256
0.305066	323.435
0.319125	325.102
0.33172	326.249
0.349691	326.983
0.362376	327.904
0.37627	329.539
0.392533	330.123
0.40299	330.711
0.417467	332.106
0.431038	333.361
0.44989	332.63
0.447952	336.54
0.462651	334.783
0.477349	336.15
0.493256	336.262
0.503265	336.798
0.517217	338.093
0.53103	339.081
0.54929	340.91
0.548578	336.971
0.562321	340.356
0.576281	341.403
0.593082	341.534
0.603539	342.047
0.61729	343.385
0.630942	344.478
0.649004	346.974
0.649668	342.46
0.662595	345.82
0.675616	346.972
0.690533	347.997
0.7017	347.854
0.71539	348.984
0.727834	350.164
0.74958	353.197
0.762869	351.932
0.799838	356.292
0.813611	354.844
0.825893	355.925
0.850123	359.182
0.900596	362.167
0.913885	360.636
0.921738	361.593
0.951337	365.223
0.964264	364.157
0.97688	365.51

File: jacs.6b06759-si_page_12_Zr-MTBC_des.txt
# Relative Pressure (p/p0)    Quantity Adsorbed
1	 368.596
0.986188	367.312
0.933702	362.168
0.889733	361.212
0.837937	358.565
0.791897	357.72
0.736265	354.174
0.682551	353.339
0.632673	350.689
0.582796	348.04
0.536756	345.385
0.48496	342.738
0.435083	340.089
0.389042	335.625
0.337247	333.883
0.28737	329.424
0.187615	321.41
0.231737	324.972
0.231737	324.972
0.131983	315.149
0.105126	313.374
0.0437385	295.358
0.0226366	265.527

File: jacs.6b08724-si_page_50_(Ni3O)2(TCPP-Co)3_ads.txt
# Relative Pressure (p/p0)    Quantity Adsorbed
-0.00779601	 46.796
-0.00708934	135.607
-0.00722446	115.73
-0.00744942	65.3574
-0.00751152	30.4261
-0.00681269	10.602
-0.00536837	156.136
-0.00373363	188.928
-0.00326261	211.521
-0.0013308	231.787
0.000800048	251.768
0.00511197	256.833
0.00438151	283.927
0.00980758	295.32
0.0192842	326.11
0.0529044	380.741
0.0747521	406.801
0.0935987	429.433
0.103649	438.697
0.124153	471.041
0.133385	474.456
0.145009	499.684
0.174119	549.18
0.184827	604.998
0.189594	661.538
0.191386	691.29
0.191212	673.584
0.193542	708.574
0.204773	730.396
0.209232	750.333
0.206212	739.574
0.232721	763.067
0.23933	769.932
0.248494	769.882
0.288747	778.577
0.298479	780.62
0.345115	787.447
0.351799	788.249
0.355577	780.762
0.396111	793.638
0.446559	798.807
0.496804	802.887
0.547797	806.917
0.597294	810.645
0.602878	814.629
0.653291	824.238
0.696633	816.84
0.703313	816.772
0.75266	823.264
0.798267	821.927
0.847561	824.32
0.853773	825.948
0.905896	819.98

File: jacs.6b08724-si_page_50_(Ni3O)2(TCPP-Co)3_des.txt
# Relative Pressure (p/p0)    Quantity Adsorbed
0.895873	 830.652
0.860663	824.926
0.812667	826.95
0.758257	821.261
0.657454	819.524
0.657454	819.524
0.711853	819.419
0.611037	809.957
0.55984	811.987
0.507023	802.433
0.46542	800.582
0.41102	800.687
0.3566	789.204
0.313389	783.493
0.262179	777.798
0.217359	766.297
0.206152	762.456
0.199752	762.468
0.198135	752.815
0.19489	727.714
0.194914	741.233
0.189943	644.676
0.183443	588.68
0.157713	515.339
0.157713	515.339
0.136861	486.409
0.11761	457.477
0.0871413	418.909
0.0695071	399.63
0.0438419	362.984
0.0229939	335.985
0.0229939	335.985
0.014939	305.1
0.00848409	274.211

File: jacs.6b08724-si_page_51_(Ni3O)2(TCPP-Cu)3_ads.txt
# Relative Pressure (p/p0)    Quantity Adsorbed
-0.00420167	 109.784
-0.00448612	64.5644
-0.00434896	36.7155
-0.00336854	85.6352
0.00100182	129.296
0.00548323	165.192
0.00412784	146.469
0.00476483	106.907
0.00490049	62.1434
0.00414752	36.4412
0.00561072	203.3
0.00558146	188.784
0.00491754	85.6913
0.00261223	73.4011
0.00733141	242.344
0.00848013	269.161
0.0120502	305.513
0.0105722	288.817
0.0136076	323.853
0.0222213	367.538
0.0192873	350.858
0.0186561	339.409
0.0309247	403.438
0.0370484	412.814
0.0454042	434.888
0.0553657	448.987
0.064976	464.893
0.0759513	479.148
0.0879306	501.203
0.0875657	493.627
0.0988186	509.816
0.106429	523.721
0.116833	537.274
0.120921	538.074
0.129369	570.014
0.128636	549.307
0.13645	562.624
0.138885	571.265
0.148162	576.46
0.155194	589.199
0.157843	602.418
0.161482	597.336
0.166977	608.304
0.17574	633.5
0.186222	651.885
0.204767	744.679
0.21134	752.648
0.212552	729.464
0.209153	714.515
0.217262	913.28
0.235148	939.26
0.24145	950.614
0.273517	966.809
0.284352	964.44
0.293583	965.187
0.302813	965.826
0.348752	978.2
0.398942	987.224
0.406082	983.162
0.448023	994.152
0.455665	990.017
0.499313	1000.55
0.54748	1007.04
0.597856	1012.28
0.648038	1017.36
0.698027	1022.15
0.7033	1030.49
0.747491	1027.7
0.753725	1027.18
0.796759	1031.81
0.803303	1031.37
0.847853	1036.65
0.853651	1039.58
0.896242	1034.73

File: jacs.6b08724-si_page_51_(Ni3O)2(TCPP-Cu)3_des.txt
# Relative Pressure (p/p0)    Quantity Adsorbed
0.991038	 1054.17
0.902333	1047.62
0.864633	1044.35
0.809174	1031.25
0.758176	1031.25
0.711613	1031.25
0.662819	1024.7
0.614019	1014.88
0.560811	1018.15
0.509786	1005.06
0.463223	1005.06
0.407771	995.238
0.363399	982.143
0.314599	972.321
0.268016	962.5
0.221433	952.679
0.212293	818.452
0.203245	730.06
0.196567	716.964
0.19433	707.143
0.192093	697.321
0.189856	687.5
0.180941	664.583
0.160892	618.75
0.145312	589.286
0.120862	559.821
0.0941756	520.536
0.0652848	487.798
0.0541521	464.881
0.0296761	422.321
0.0185368	396.131
0.00956208	343.75

File: jacs.6b08724-si_page_52_(Fe3O)2(TCPP-Co)3_ads.txt
# Relative Pressure (p/p0)    Quantity Adsorbed
0.0075939	 84.0993
0.0075939	73.6888
0.00846368	165.437
0.00846368	154.537
0.0075939	145.783
0.00852581	132.689
0.00701404	126.247
0.00846368	112.435
0.0075939	104.407
0.00933347	200.261
0.0106382	221.626
0.00976837	64.6409
0.0139723	238.84
0.0233012	287.446
0.0219454	276.481
0.0206407	265.829
0.031948	311.514
0.0297735	297.172
0.0345573	308.552
0.0397761	315.863
0.0490761	331.742
0.0526054	336.798
0.0602161	341.113
0.0661803	356.4
0.0672365	348.704
0.0763072	357.517
0.0859292	369.911
0.089209	376.009
0.0971821	377.069
0.105989	388.803
0.118637	405.555
0.130234	426.729
0.136265	417.87
0.140547	424.673
0.148397	446.017
0.157197	447.679
0.161372	470.374
0.169766	470.994
0.177782	482.032
0.180247	502.542
0.187118	516.804
0.207913	659.878
0.205471	557.203
0.216343	666.129
0.225911	669.334
0.235478	674.847
0.241465	682.397
0.250656	683.946
0.246351	677.148
0.259398	679.157
0.272879	684.806
0.282447	690.96
0.292015	692.327
0.301375	694.427
0.310498	688.492
0.347018	701.786
0.354165	703.185
0.356814	697.096
0.397466	709.459
0.403782	711.31
0.407262	704.153
0.418569	708.803
0.447228	715.443
0.455535	710.41
0.497492	720.689
0.503199	720.892
0.54707	725.926
0.553676	728.769
0.597517	730.106
0.603399	738.285
0.61862	733.278
0.696858	739.057
0.70212	744.181
0.746435	744.073
0.796699	747.868
0.996543	780.457

File: jacs.6b08724-si_page_52_(Fe3O)2(TCPP-Co)3_des.txt
# Relative Pressure (p/p0)    Quantity Adsorbed
0.983087	 774.905
0.89852	759.292
0.856237	754.914
0.811839	752.831
0.763214	746.196
0.710359	739.581
0.661734	739.803
0.615222	735.444
0.562368	731.114
0.509514	731.356
0.458774	715.588
0.410148	713.525
0.365751	706.87
0.315011	697.96
0.262156	689.058
0.219873	677.823
0.207188	675.595
0.200846	671.053
0.200846	655.053
0.192389	554.52
0.190275	508.815
0.183932	495.13
0.160677	458.665
0.143763	438.171
0.124736	419.972
0.0972516	390.384
0.0761099	367.623
0.0549683	349.434
0.0359408	326.664
0.0232558	301.579
0.0147992	274.189

File: jacs.6b08724-si_page_53_(Mn1.77Ni1.23O)2(TCPP-Ni)3_ads.txt
# Relative Pressure (p/p0)    Quantity Adsorbed
0.00296241	 115.423
0.00412335	105.242
0.00420628	58.4909
0.00284631	33.1768
0.00862201	152.583
0.00831105	139.297
0.00753363	94.0655
0.00760619	47.0594
0.0126939	193.915
0.0107988	180.493
0.00862201	108.361
0.00818666	80.2842
0.0103634	170.365
0.00949272	164.75
0.0177645	208.816
0.0251655	234.085
0.0298093	246.642
0.0373554	254.909
0.0442815	264.828
0.0555677	292.034
0.0543342	273.497
0.0612999	284.751
0.0651092	292.747
0.0712508	289.192
0.077719	309.615
0.0792499	296.993
0.0863639	306.206
0.0959699	311.383
0.111975	325.539
0.11942	334.032
0.127949	342.693
0.137342	353.164
0.147152	360.214
0.151128	368.341
0.160829	376.463
0.17053	397.978
0.171154	386.264
0.180118	401.589
0.176233	392.41
0.189642	418.388
0.186682	406.604
0.200323	478.825
0.197566	423.412
0.200077	434.886
0.201876	547.981
0.202824	451.912
0.203938	579.256
0.204531	503.299
0.204677	466.814
0.207268	481.117
0.206708	474.77
0.209804	589.446
0.204967	441.077
0.211062	551.812
0.210191	543.559
0.207579	451.372
0.212411	576.737
0.218971	595.242
0.224703	599.635
0.232829	601.968
0.245569	610.797
0.241537	603.613
0.255274	605.485
0.264175	607.371
0.274521	617.991
0.271141	610.102
0.284143	620.366
0.281589	612.682
0.293725	621.62
0.290732	613.986
0.302486	615.922
0.312064	616.39
0.317724	619.368
0.394302	632.681
0.41829	637.15
0.495305	642.017
0.514068	643.531
0.545806	646.275
0.554308	649.671
0.564134	648.615
0.595436	650.276
0.665572	658.165
0.697498	657.383
0.705932	654.106
0.814898	670.047
0.994709	699.526
0.897707	680.569
0.844797	667.299
0.747795	661.611
0.798942	669.194
0.64903	654.028
0.449735	638.863

File: jacs.6b08724-si_page_53_(Mn1.77Ni1.23O)2(TCPP-Ni)3_des.txt
# Relative Pressure (p/p0)    Quantity Adsorbed
0.987654	 699.526
0.899471	684.36
0.855379	680.569
0.809524	678.673
0.760141	672.986
0.708995	669.194
0.661376	665.403
0.610229	661.611
0.559083	657.82
0.507937	648.341
0.45679	642.654
0.405644	638.863
0.361552	631.28
0.315697	623.697
0.257496	616.114
0.215168	608.531
0.209877	600.948
0.202822	498.578
0.195767	458.768
0.19224	439.81
0.19224	439.81
0.188713	426.54
0.183422	418.957
0.165785	394.313
0.141093	369.668
0.118166	345.024
0.0881834	320.379
0.0723104	297.63
0.0511464	286.256
0.0299824	259.716
0.0299824	259.716
0.0229277	246.445
0.00881834	212.322
0.00881834	128.91
0.00705467	68.2464

File: om701262m-si_page_2_Ge4A-Zn_ads.txt
# Relative Pressure (p/p0)    Quantity Adsorbed
0.00312168	 83.0586
0.00879658	88.8511
0.00736319	86.3712
0.0232853	95.8476
0.0329088	97.4186
0.0279957	95.2647
0.0429665	99.2908
0.0532349	100.367
0.0635033	101.443
0.0793832	103.85
0.0880875	104.182
0.0999174	105.824
0.10882	106.205
0.120451	107.768
0.130717	108.626
0.141918	109.783
0.151245	110.159
0.161042	110.859
0.171778	112.058
0.182042	112.847
0.194082	113.987
0.202567	114.167
0.213499	115.061
0.223099	115.992
0.233363	116.751
0.245262	117.788
0.253885	117.903
0.268819	119.298
0.279081	119.948
0.287011	120.465
0.299605	121.199
0.307741	121.303
0.320133	122.707
0.339993	124.072
0.350918	124.499
0.359403	124.722
0.371445	126.017
0.381707	126.637
0.392903	127.368
0.402227	127.581
0.412028	128.567
0.422773	130.377
0.433044	131.631
0.443661	132.659
0.449745	133.968
0.457055	133.835
0.46945	135.477
0.479716	136.404
0.488117	137.191
0.500247	138.101
0.507704	138.105
0.520775	139.668
0.531038	140.328
0.540635	141.052
0.551562	141.618
0.560048	141.852
0.572091	143.226
0.582355	143.945
0.593085	144.776
0.602878	145.136
0.611894	145.529
0.623407	146.734
0.633669	147.384
0.645177	148.213
0.65419	148.436
0.663985	148.987
0.674718	149.954
0.684979	150.555
0.697015	151.382
0.705499	151.518
0.71643	152.334
0.726027	153.046
0.736289	153.627
0.748344	154.343
0.756805	154.382
0.771738	155.748
0.782	156.339
0.789929	156.745
0.802522	157.461
0.810658	157.545
0.823046	158.681
0.833307	159.242
0.842947	159.864
0.853827	160.27
0.863163	161.277
0.874392	164.389
0.884674	166.416
0.893554	168.194
0.904302	170.172
0.912849	171.221
0.92506	172.333
0.946457	174.074
0.955626	174.334
0.965987	175.386
0.979463	176.4
0.98971	177.602
0.997408	179.4

File: om701262m-si_page_2_Ge4A-Zn_des.txt
# Relative Pressure (p/p0)    Quantity Adsorbed
0.0168977	 101.395
0.0270543	101.893
0.0373357	103.885
0.0447125	105.548
0.0529534	105.787
0.065227	107.955
0.0700823	109.368
0.0778293	109.288
0.0911469	111.765
0.0995381	111.926
0.115649	114.169
0.123856	114.485
0.138284	116.39
0.144954	117.91
0.15376	118.496
0.166995	119.848
0.175203	120.231
0.191267	122.478
0.199891	122.665
0.216471	125.109
0.225095	125.295
0.242149	126.792
0.250284	126.836
0.267316	126.866
0.275451	126.851
0.292025	128.895
0.300649	129.046
0.317226	131.308
0.32585	131.458
0.334017	132.226
0.34639	133.868
0.354527	134.011
0.368722	136.211
0.376718	136.283
0.392826	138.345
0.40145	138.478
0.41775	140.647
0.426651	140.89
0.434817	141.603
0.447191	143.3
0.455327	143.423
0.469523	145.643
0.477518	145.715
0.493629	147.959
0.502253	148.127
0.510419	148.786
0.522791	150.319
0.530927	150.443
0.54512	152.445
0.553115	152.517
0.56922	154.379
0.577844	154.493
0.594415	156.355
0.603039	156.469
0.621693	157.352
0.630313	157.176
0.642174	155.594
0.649403	154.124
0.656817	154.441
0.673876	156.294
0.682012	156.398
0.696528	158.209
0.704663	158.274
0.724265	160.247
0.732402	160.371
0.746594	162.373
0.755056	162.445
0.770698	164.488
0.779322	164.639
0.795893	166.501
0.804516	166.615
0.82109	168.678
0.829714	168.81
0.846427	170.825
0.854912	171.004
0.860505	171.008
0.875443	172.76
0.8829	172.765
0.89711	174.269
0.905302	174.958