Folder: Experimental-Data-Digitalization/data/nitrogen-adsorption-isotherms (part 6)

File: cg501332u_page_4_2'_ads.txt
# Relative Pressure (p/p0)    Quantity Adsorbed
0.00182149	 23.3153
-0.000455373	84.988
0.00409836	144.404
0.0428051	163.207
0.06102	164.711
0.0815118	166.968
0.104281	166.968
0.131603	169.224
0.158925	169.976
0.183971	169.976
0.21357	171.48
0.238616	172.984
0.263661	171.48
0.279599	173.736
0.316029	173.736
0.36612	173.736
0.409381	175.241
0.457195	175.993
0.51184	175.241
0.559654	175.241
0.614299	175.993
0.657559	176.745
0.709927	178.249
0.760018	178.249
0.812386	177.497
0.8602	179.001
0.912568	179.001
0.960383	180.505
0.983151	182.01
1.00137	182.762

File: cg501332u_page_4_2'_des.txt
# Relative Pressure (p/p0)    Quantity Adsorbed
0.971767	 182.01
0.944444	182.01
0.898907	180.505
0.844262	180.505
0.796448	179.001
0.748634	179.001
0.693989	179.001
0.643898	179.001
0.593807	179.001
0.543716	179.001
0.498179	177.497
0.448087	175.241
0.400273	175.993
0.345628	174.489
0.29326	175.241
0.270492	175.241
0.25	174.489
0.222678	172.984
0.197632	172.984
0.17714	172.984
0.147541	172.984
0.117942	171.48
0.095173	170.728

File: cg901128k_page_6_3_ads.txt
# Relative Pressure (p/p0)    Quantity Adsorbed
0.000403897	 0.15992
0.000289587	2.38212
-0.00252055	7.01112
0.0023567	12.1974
-0.00301589	16.6406
-0.000691579	21.456
-0.000948777	26.4559
0.00384274	33.3088
0.00375701	34.9755
0.0370118	38.5014
0.0548919	40.9128
0.0908045	42.7726
0.206382	45.9464
0.309204	47.0804
0.414646	47.289
0.520088	47.4976
0.61006	48.4435
0.715493	48.8373
0.820954	48.6756
0.921261	48.6979
1.00865	49.8284

File: cg901128k_page_6_3_des.txt
# Relative Pressure (p/p0)    Quantity Adsorbed
0.918622	 49.9936
0.823459	49.9725
0.725714	50.1359
0.625387	50.484
0.527661	50.2771
0.427363	50.0696
0.33219	50.2337
0.22932	50.0256
0.134166	49.8193
0.0313916	47.7594
0.00582412	44.7908
0.000918295	40.16
0.00112786	36.086

File: cg901312t_page_3_1_ads.txt
# Relative Pressure (p/p0)    Quantity Adsorbed
0.031746	 91.0849
0.0572562	96.2685
0.079932	97.8857
0.110639	99.2975
0.134259	100.145
0.15788	100.805
0.183862	101.466
0.209845	101.939
0.235828	102.317
0.259448	102.884
0.287793	103.263
0.309051	103.453
0.33031	103.926
0.361017	104.211
0.384637	104.496
0.405896	104.78
0.427154	104.877
0.455499	105.444
0.488568	105.73
0.509826	105.827
0.531085	105.923
0.561791	105.928
0.58305	106.681
0.609033	106.872
0.639739	106.97
0.656274	107.066
0.682256	107.258
0.708239	107.449
0.729497	108.202
0.757842	108.394
0.781463	108.585
0.805083	108.776
0.828704	109.248
0.854686	109.627
0.878307	110.85
0.904289	111.323
0.930272	111.983
0.951531	113.112
0.977513	114.711

File: cg901312t_page_3_1_des.txt
# Relative Pressure (p/p0)    Quantity Adsorbed
0.998772	 116.028
0.963341	115.46
0.944444	115.082
0.9161	114.609
0.894841	113.949
0.871221	113.477
0.845238	113.098
0.821618	112.344
0.795635	111.59
0.76729	110.835
0.74367	110.175
0.717687	110.172
0.689342	109.792
0.670446	109.321
0.644463	109.036
0.618481	108.751
0.592498	108.841
0.568878	108.462
0.540533	108.177
0.519274	107.893
0.493292	107.701
0.469671	107.51
0.443689	106.944
0.415344	106.659
0.391723	106.561
0.370465	106.089
0.344482	105.711
0.320862	105.332
0.292517	104.765
0.271259	104.387
0.245276	103.82
0.219293	103.441
0.195673	102.875
0.167328	102.027
0.14607	101.179
0.122449	100.519
0.0964664	99.1079
0.0704837	97.4152
0.0515873	95.2543

File: cg5008236-si_page_10_1_ads.txt
# Relative Pressure (p/p0)    Quantity Adsorbed
0.00202944	 3.27273
0.0153905	3.92727
0.0267913	3.27273
0.053458	3.27273
0.0896623	3.6
0.116329	3.6
0.141091	3.6
0.169662	3.6
0.192506	3.27273
0.215363	3.27273
0.23822	3.27273
0.266791	3.27273
0.285811	2.61818
0.314369	2.29091
0.339131	2.29091
0.363893	2.29091
0.382954	2.61818
0.407702	2.29091
0.436246	1.63636
0.466722	1.63636
0.483865	1.63636
0.504831	1.96364
0.535307	1.96364
0.560042	1.30909
0.586708	1.30909
0.609552	0.981818
0.636274	2.29091
0.666694	0.981818
0.689565	1.30909
0.710518	1.30909
0.737212	1.96364
0.75626	1.96364
0.792478	2.61818
0.832478	2.61818
0.85343	2.61818
0.876301	2.94545
0.908724	3.92727
0.927813	4.90909
0.939366	7.85455
0.956592	9.81818
0.966185	11.4545
0.981728	18.6545
0.991778	31.0909
0.995962	39.9273

File: cg5008236-si_page_10_1_des.txt
# Relative Pressure (p/p0)    Quantity Adsorbed
0.982061	 26.5091
0.976083	20.2909
0.960596	14.4
0.935626	9.49091
0.905011	6.21818
0.882113	5.23636
0.849662	3.6
0.809593	1.96364
0.779089	1.30909

File: cg5008236-si_page_10_2_ads.txt
# Relative Pressure (p/p0)    Quantity Adsorbed
0.00540166	 2.76562
0.00952701	4.50387
0.0201715	6.25691
0.017485	5.40588
0.0271729	6.81428
0.0344965	6.90924
0.0423968	7.09916
0.0504878	7.23515
0.0574559	7.26068
0.0652326	7.47722
0.0728446	7.65826
0.0804565	7.818
0.0886791	7.9245
0.0950317	7.95379
0.103062	8.34032
0.105599	8.78356
0.112934	8.47508
0.119463	8.37458
0.127512	8.53152
0.135561	8.41774
0.142143	8.43073
0.150348	8.73386
0.158439	9.09595
0.165407	9.0318
0.173184	9.35154
0.181084	9.46691
0.188243	9.26051
0.196308	9.67191
0.203632	9.81479
0.200172	9.21309
0.211244	9.58583
0.218856	9.80414
0.226468	9.7509
0.234368	9.70608
0.241527	9.58126
0.249303	9.73492
0.257526	9.80571
0.263879	9.89034
0.272139	10.0171
0.280362	10.1503
0.286714	10.1466
0.294975	10.0331
0.310291	10.0097
0.314178	9.95989
0.320579	10.3047
0.328729	10.3618
0.335157	10.365
0.343415	10.4165
0.351673	10.3533
0.3581	10.2707
0.366251	10.2727
0.374151	10.2235
0.38131	10.1447
0.389086	10.2674
0.396698	10.1822
0.40431	10.3047
0.412568	10.0058
0.419055	10.2674
0.427739	10.1754
0.434321	10.1718
0.44237	10.3739
0.450461	10.5828
0.457283	10.4783
0.465206	10.8105
0.472818	10.9543
0.48043	11.1566
0.488207	11.146
0.495654	11.3643
0.503689	11.3998
0.510232	11.4662
0.51849	11.6412
0.52675	11.6255
0.533103	11.6352
0.541325	11.6785
0.549926	11.6731
0.556549	11.7051
0.563997	11.6034
0.571773	11.7477
0.579822	11.6454
0.586518	11.6731
0.594609	11.7903
0.602913	12.4932
0.611063	11.8586
0.617491	11.8918
0.626398	12.6176
0.632823	12.6916
0.640973	12.8446
0.649231	12.8875
0.65576	12.8847
0.663809	12.9617
0.671421	12.9617
0.679033	12.9724
0.686809	12.9032
0.693777	12.9437
0.70218	13.0613
0.708834	13.1023
0.717092	13.1854
0.724704	13.2333
0.732962	13.3132
0.739928	13.6965
0.748019	13.4889
0.754841	13.6002
0.762764	13.654
0.770376	13.6753
0.777988	13.8084
0.785765	13.7873
0.792733	13.7908
0.800708	13.896
0.809084	14.0124
0.816048	14.3408
0.824308	14.3894
0.831272	14.7988
0.838883	14.7615
0.846495	14.9532
0.854419	15.1172
0.861522	15.2879
0.869167	15.5389
0.876943	15.6827
0.884555	15.8318
0.892167	16.0128
0.900216	16.0859
0.906745	16.2301
0.915003	16.54
0.923264	16.8495
0.930227	17.2588
0.937839	17.524
0.945451	17.786
0.953063	18.2359
0.960675	18.8829
0.967638	19.2143
0.974433	21.07
0.976314	20.3536
0.981286	21.5175
0.981435	20.5762
0.985587	29.9903
0.983511	23.7625
0.986163	25.301

File: cg5008236-si_page_10_2_des.txt
# Relative Pressure (p/p0)    Quantity Adsorbed
0.986692	 27.3214
0.954373	21.8571
0.925856	21.2143
0.876426	20.25
0.842205	18.9643
0.80038	19.2857
0.775665	19.2857
0.750951	18.6429
0.701521	18.3214
0.678707	17.3571
0.652091	18.0
0.627376	17.6786
0.606464	17.0357
0.576046	17.3571
0.558935	17.3571
0.536122	17.3571
0.507605	16.3929
0.484791	15.1071
0.463878	13.8214
0.437262	13.5
0.412548	13.5
0.391635	13.5
0.359316	13.1786
0.336502	12.5357
0.319392	12.8571
0.28327	12.5357
0.264259	12.5357
0.239544	12.5357
0.218631	12.2143
0.188213	11.5714
0.159696	11.5714
0.140684	11.25
0.11597	11.25
0.0912548	10.6071

File: cm500700z_page_5_compound 3_ads.txt
# Relative Pressure (p/p0)    Quantity Adsorbed
-0.00222717	 51.3473
0.0	70.7338
-0.00222717	82.7644
0.0	91.4558
0.0	96.8034
0.0	100.146
0.0	106.162
0.0	110.841
0.00222717	131.564
0.00445434	142.929
0.00222717	158.971
0.00222717	158.971
0.00222717	163.65
0.00222717	169.666
0.00222717	175.013
0.00445434	152.288
0.00222717	190.388
0.00222717	196.404
0.00222717	203.757
0.00222717	206.431
0.00222717	209.773
0.00445434	213.116
0.00890869	217.13
0.013363	222.481
0.0155902	225.156
0.0178174	229.168
0.0222717	233.182
0.0289532	235.192
0.0334076	236.532
0.0400891	239.21
0.0534521	241.893
0.064588	243.905
0.0890869	247.932
0.200445	256.697
0.305122	263.451
0.403118	266.19
0.498886	266.254
0.605791	269
0.701559	271.069
0.799555	273.808
0.899777	273.875
0.993318	283.296

File: cm500700z_page_5_compound 3_des.txt
# Relative Pressure (p/p0)    Quantity Adsorbed
0.877506	 277.871
0.777283	274.462
0.679287	273.728
0.599109	273.006
0.505568	272.275
0.403118	266.859
0.298441	264.115
0.200445	258.702
0.0979955	249.275

File: cm503311x-si_page_7_mono-lp-[AlF(bdc)]_ads.txt
# Relative Pressure (p/p0)    Quantity Adsorbed
0.00219786	 249.448
0.00216787	256.256
0.00579698	265.782
0.0149387	273.937
0.0314347	279.357
0.0314347	279.357
0.0571144	283.4
0.0571144	283.4
0.0809765	283.361
0.101156	286.051
0.101156	286.051
0.123188	284.653
0.145191	290.064
0.161711	290.037
0.183725	292.725
0.203928	289.968
0.251635	293.975
0.301194	293.894
0.352584	295.172
0.403979	295.088
0.453527	297.73
0.49941	299.017
0.552647	297.568
0.602195	300.211
0.653602	297.403
0.754539	301.323
0.754539	301.323
0.706815	301.401
0.804099	301.242
0.829785	303.924
0.846305	303.897
0.879344	303.843
0.901365	305.168
0.925209	309.214
0.954554	314.613
0.972897	317.306
0.976533	325.47
0.98559	352.689
0.992477	456.163
0.996244	434.371
0.992621	423.483
0.985434	388.092

File: cm503311x-si_page_7_mono-lp-[AlF(bdc)]_des.txt
# Relative Pressure (p/p0)    Quantity Adsorbed
0.0479066	 290.223
0.0882587	296.965
0.123122	299.632
0.202045	300.865
0.251605	300.784
0.297487	302.07
0.352548	303.342
0.400278	301.902
0.453497	304.539
0.501221	304.461
0.548952	303.021
0.600335	305.66
0.65173	305.576
0.704955	306.851
0.754509	308.132
0.804063	309.412
0.853617	310.693
0.853617	310.693
0.884833	307.919
0.914172	314.679
0.985506	371.752
0.987072	433.024

File: cm901983a-si_page_11_MlK-100(Al)_ads.txt
# Relative Pressure (p/p0)    Quantity Adsorbed
0.00218292	 207.099
0.00138739	192.431
0.00138739	182.281
0.00138739	172.13
0.00138739	161.98
0.00138739	151.829
0.00138739	141.679
0.00138739	131.528
0.00138739	121.378
0.00138739	111.227
0.00138739	101.077
0.00138739	90.9264
0.00138739	80.7759
0.00138739	70.6254
0.00138739	60.4749
0.00138739	50.3244
0.00138739	40.1739
0.00138739	30.0234
0.00138739	19.8729
0.00066885	9.1342
0.00294423	255.643
0.0024652	241.425
0.0024652	231.274
0.00240532	221.708
0.00408192	286.447
0.00354301	271.686
-0.00130714	265.714
0.00208027	2.83747
0.00496953	304.545
0.00641717	321.731
0.00731535	336.106
0.00996842	347.638
0.0113571	359.384
0.0152911	370.482
0.0199955	382.547
0.0239855	394.643
0.0277938	407.274
0.0326798	418.465
0.0382126	428.862
0.0436016	439.353
0.0489907	449.844
0.0543797	460.365
0.0600607	470.873
0.0645291	482.595
0.0721277	492.566
0.0806065	503.117
0.089229	514.058
0.0982556	524.851
0.104992	534.995
0.110426	546.035
0.115179	557.57
0.123479	566.071
0.134497	572.958
0.145429	579.951
0.158209	584.302
0.170065	586.755
0.181921	588.914
0.193777	590.57
0.205633	592.016
0.217488	593.294
0.229344	594.698
0.2412	595.809
0.253056	596.878
0.264912	598.072
0.276768	599.015
0.288624	599.916
0.30048	600.817
0.312336	601.676
0.324192	602.409
0.336048	603.058
0.347904	603.875
0.359759	604.524
0.371615	604.964
0.383471	605.529
0.395327	606.136
0.407183	606.366
0.419039	607.099
0.430895	607.119
0.442751	607.852
0.454607	607.914
0.466463	608.27
0.478319	608.709
0.490175	608.645
0.50203	609.169
0.513886	609.441
0.525742	609.377
0.537598	609.481
0.549454	610.088
0.56131	610.108
0.573166	610.044
0.585022	610.148
0.596878	610.755
0.608734	610.775
0.62059	610.712
0.632446	610.774
0.644301	611.339
0.656157	611.443
0.668013	611.379
0.679869	611.315
0.691725	611.251
0.703581	611.187
0.715437	611.124
0.727293	611.311
0.739149	611.793
0.751005	611.855
0.762861	611.791
0.774717	611.769
0.786572	612.125
0.798428	612.522
0.810284	612.458
0.82214	612.395
0.833996	612.708
0.845852	613.064
0.857708	613.126
0.869564	613.062
0.88142	613.166
0.893276	613.815
0.905132	613.877
0.916988	614.652
0.928843	615.259
0.940699	616.034
0.952555	616.893
0.964411	618.507
0.976267	620.541
0.988293	624.419
0.996925	631.293

File: ic100188w_page_4_1_ads.txt
# Relative Pressure (p/p0)    Quantity Adsorbed
-0.00526316	 73.3553
-0.00263158	78.9474
0.00526316	85.8553
0.0263158	89.8026
0.0578947	91.4474
0.0710526	92.1053
0.115789	92.7632
0.136842	92.7632
0.171053	92.7632
0.247368	92.7632
0.294737	93.0921
0.347368	92.1053
0.402632	92.1053
0.45	92.1053
0.5	92.4342
0.594737	91.1184
0.65	90.4605
0.707895	91.1184
0.755263	89.8026
0.794737	90.7895
0.831579	90.4605
0.847368	90.1316
0.884211	90.4605
0.905263	90.1316
0.95	90.1316
0.968421	89.8026
0.989474	89.8026

File: ic100188w_page_4_1_des.txt
# Relative Pressure (p/p0)    Quantity Adsorbed
0.997368	 89.1447
0.944737	89.8026
0.921053	89.8026
0.897368	89.8026
0.860526	90.4605
0.860526	90.4605
0.834211	90.4605
0.75	90.4605
0.75	90.4605
0.7	91.1184
0.594737	91.1184
0.594737	91.1184
0.497368	91.7763
0.45	92.1053
0.45	92.1053
0.347368	92.7632
0.292105	92.7632
0.242105	92.7632
0.202632	93.0921
0.147368	93.0921
0.147368	93.0921
0.0921053	92.7632

File: ic100188w_page_4_2_ads.txt
# Relative Pressure (p/p0)    Quantity Adsorbed
0.00263158	 4.93421
0.00263158	10.1974
0.00263158	19.7368
0.00263158	19.7368
0.00526316	14.1447
0.0	24.6711
0.00263158	30.5921
0.0	35.1974
0.0	39.4737
0.0	45.0658
0.00263158	50.0
0.00263158	55.2632
0.0	59.8684
0.0	65.7895
0.0	69.0789
0.0	75.0
0.0	79.6053
0.00263158	83.2237
0.0	88.8158
0.0	88.8158
-0.00526316	94.0789
-0.00526316	94.0789
0.0131579	96.3816
0.0368421	97.6974
0.0842105	97.6974
0.0842105	97.6974
0.107895	98.0263
0.171053	98.3553
0.171053	98.3553
0.257895	98.6842
0.3	98.0263
0.347368	98.0263
0.405263	98.3553
0.45	98.3553
0.5	98.3553
0.602632	97.3684
0.602632	97.3684
0.65	97.0395
0.752632	97.3684
0.752632	97.3684
0.697368	97.0395
0.8	97.3684
0.821053	96.7105
0.85	96.3816
0.873684	96.0526
0.9	96.0526
0.926316	96.3816
0.95	96.0526
0.976316	96.0526
0.997368	96.7105

File: ic100188w_page_4_2_des.txt
# Relative Pressure (p/p0)    Quantity Adsorbed
0.139474	 98.3553
0.2	98.6842
0.2	98.6842
0.25	98.3553
0.25	98.3553
0.294737	98.0263
0.342105	98.0263
0.4	98.3553
0.444737	98.3553
0.494737	98.0263
0.55	98.0263
0.602632	97.6974
0.65	97.6974
0.694737	97.3684
0.747368	97.3684
0.792105	97.6974
0.815789	97.0395
0.873684	96.3816
0.9	97.3684
0.926316	96.7105
0.944737	96.7105
0.965789	96.7105
0.981579	96.7105
0.997368	97.0395

File: ic200054b_page_4_1_ads.txt
# Relative Pressure (p/p0)    Quantity Adsorbed
0.000513966	 232.814
0.00718709	255.74
0.00724607	282.458
0.0172979	335.931
0.0702953	343.767
0.0702953	343.767
0.11667	351.578
0.166339	351.767
0.209386	351.932
0.265678	352.146
0.312044	356.14
0.368336	356.355
0.421317	356.557
0.467683	360.551
0.520672	364.57
0.570342	364.76
0.6167	364.937
0.66968	365.139
0.7293	373
0.775667	376.994
0.822016	373.354
0.871686	373.543
0.918052	377.537
0.967713	373.91
0.9909	377.815

File: ic200054b_page_4_1_des.txt
# Relative Pressure (p/p0)    Quantity Adsorbed
0.947862	 381.468
0.891562	377.436
0.82863	369.562
0.782272	369.385
0.739226	369.221
0.692868	369.044
0.639904	376.476
0.590226	372.469
0.540549	368.463
0.500805	364.494
0.451135	364.305
0.398146	360.286
0.345166	360.083
0.285554	356.039
0.24913	355.9
0.182879	344.197
0.136529	347.837
0.096794	347.685
0.0537305	339.887
0.0371656	336.007
0.0139529	320.651

File: ic200054b_page_4_MOF-5_ads.txt
# Relative Pressure (p/p0)    Quantity Adsorbed
0.0101192	 83.9955
0.00703543	187.037
0.0116021	755.757
0.0119897	931.331
0.0156296	1080.2
0.0256393	1114.59
0.0422294	1129.92
0.0754097	1160.58
0.0754434	1175.85
0.115221	1195.08
0.178169	1210.59
0.264347	1249.09
0.231192	1229.88
0.314033	1256.91
0.38694	1283.91
0.502852	1291.98
0.569078	1292.24
0.67177	1311.71
0.787673	1315.97
0.893634	1316.38
0.986393	1335.81

File: ic200054b_page_4_MOF-5_des.txt
# Relative Pressure (p/p0)    Quantity Adsorbed
0.870455	 1316.29
0.764486	1312.07
0.655197	1304.01
0.54921	1292.16
0.49623	1291.96
0.446543	1284.13
0.383621	1280.08
0.333909	1260.8
0.277584	1245.32
0.214635	1229.81
0.161621	1214.34
0.101967	1191.22
0.0588448	1156.7

File: ic202769e_page_2_1_ads.txt
# Relative Pressure (p/p0)    Quantity Adsorbed
0.00583111	 1.48048
0.0191593	2.03651
0.0571934	2.4045
0.0571934	2.4045
0.0392767	2.31328
0.0817951	2.68085
0.106439	2.77144
0.133345	2.76894
0.16021	2.95221
0.193843	2.94908
0.218424	3.31832
0.240866	3.22335
0.265531	3.22106
0.319302	3.40183
0.370831	3.5828
0.417917	3.57842
0.480678	3.66547
0.529985	3.75377
0.579313	3.74919
0.626379	3.8377
0.684634	4.01805
0.736184	4.10614
0.78545	4.3802
0.839284	4.28232
0.890771	4.64906
0.942279	4.92291
0.986936	5.75468

File: ic202769e_page_2_1_des.txt
# Relative Pressure (p/p0)    Quantity Adsorbed
0.0925272	 4.81608
0.141814	4.99726
0.193405	4.89959
0.244955	4.98768
0.30101	4.98247
0.350255	5.34942
0.401847	5.25174
0.453396	5.33984
0.504988	5.24216
0.556558	5.23737
0.612592	5.32505
0.659679	5.32068
0.711249	5.31589
0.762882	5.03245
0.816674	5.12034
0.872688	5.30089
0.926438	5.57454
0.980146	6.03395

File: ic400607w_page_2_ZTOF-1_ads.txt
# Relative Pressure (p/p0)    Quantity Adsorbed
-0.00481454	 9.7561
0.00099409	18.4959
-0.0010227	23.5772
-0.000972635	30.6911
-0.000929724	36.7886
-0.000893966	41.8699
-0.000858207	46.9512
-0.000779538	58.1301
-0.000679414	72.3577
-0.000615048	81.5041
-0.000543531	91.6667
-0.00045771	103.862
-0.000328979	122.154
-0.0002074	139.431
-0.0002074	139.431
0.00193812	152.642
-3.57586e-05	163.821
1.43035e-05	170.935
8.58207e-05	181.098
0.00220988	191.26
0.00225995	198.374
0.000300372	211.585
0.00447698	221.748
0.0045628	233.943
0.00462717	243.089
0.017014	253.252
0.0375966	261.382
0.0622701	267.48
0.10129	270.528
0.134145	272.561
0.17727	275.61
0.216268	275.61
0.257341	278.659
0.306602	278.659
0.353824	280.691
0.405152	282.724
0.44827	284.756
0.50778	282.724
0.557041	282.724
0.59812	286.789
0.651508	289.837
0.706927	289.837
0.752083	289.837
0.799291	289.837
0.852679	292.886
0.897835	292.886
0.934795	294.919
0.986137	298.984

File: ic400607w_page_2_ZTOF-1_des.txt
# Relative Pressure (p/p0)    Quantity Adsorbed
0.979987	 300
0.930704	296.951
0.875278	295.935
0.826024	296.951
0.780875	297.967
0.727495	295.935
0.680294	296.951
0.62898	296.951
0.575592	293.902
0.528384	293.902
0.479094	289.837
0.429776	281.707
0.384613	280.691
0.327127	278.659
0.277859	277.642
0.236801	276.626
0.191638	275.61
0.152639	275.61
0.111553	270.528
0.0869006	267.48
0.0540527	266.463
0.0232073	258.333
0.00674408	252.236

File: ic501801f_page_5_1_ads.txt
# Relative Pressure (p/p0)    Quantity Adsorbed
0.0168599	 1.2183
0.0293269	2.02257
0.0474506	1.53539
0.0635455	2.04302
0.085687	2.05625
0.105816	2.06828
0.12997	2.08271
0.150099	2.09474
0.16621	1.60636
0.188359	1.12159
0.204446	2.12722
0.226595	1.64245
0.246708	2.65048
0.268858	2.16571
0.284968	1.67733
0.309123	1.69177
0.323197	2.69619
0.349372	2.21383
0.361449	2.22105
0.389637	1.73988
0.413792	1.75432
0.42789	1.26474
0.452012	3.27118
0.468131	2.2848
0.486255	1.79762
0.502342	2.80325
0.53053	2.32209
0.570803	1.35014
0.570803	1.35014
0.542599	2.82731
0.59292	2.85738
0.613057	2.37141
0.631173	2.38224
0.651302	2.39426
0.673451	1.90949
0.687525	2.91392
0.707662	2.42795
0.729803	2.44118
0.747903	3.44801
0.77407	3.46365
0.792178	3.97248
0.816348	2.99091
0.832435	3.99654
0.846533	3.50695
0.872692	4.02059
0.908908	5.03825
0.888803	3.53221
0.931049	5.05148
0.969286	5.57234

File: ic501801f_page_5_1_des.txt
# Relative Pressure (p/p0)    Quantity Adsorbed
0.995445	 6.08598
0.977337	5.57715
0.949157	5.56031
0.949157	5.56031
0.931057	4.55348
0.923006	4.54867
0.898852	4.53423
0.884754	5.02382
0.862628	4.01458
0.846509	5.00096
0.828393	4.99014
0.812299	4.48251
0.784118	4.46567
0.772041	4.45845
0.757935	5.44604
0.733789	4.9336
0.733789	4.9336
0.717686	4.92398
0.701583	4.91435
0.675416	4.89872
0.661326	4.89029
0.647236	4.88187
0.631117	5.86826
0.602953	4.85541
0.590868	5.3462
0.576786	4.83977
0.55061	5.32214
0.534507	5.31252
0.520425	4.80609
0.49425	5.28846
0.482173	5.28124
0.452004	3.76919
0.452004	3.76919
0.463902	4.46797
0.440151	3.7621
0.412194	3.7454
0.412194	3.7454
0.42757	3.75458
0.389835	3.38619
0.375856	3.37784
0.340905	3.70279
0.340905	3.70279
0.353486	3.71031
0.317137	4.03443
0.304556	4.02691
0.282191	4.01354
0.262622	4.00185
0.248643	3.99349
0.22488	3.97929
0.213698	3.97261
0.191333	3.95925
0.18015	3.95256
0.153592	3.93669
0.13542	3.92583
0.121447	3.57164
0.101872	3.90578

File: ic501801f_page_5_2_ads.txt
# Relative Pressure (p/p0)    Quantity Adsorbed
-0.0035058	 20.0972
-0.00382658	40.0174
-0.00247665	60.3535
-0.0011334	81.1046
-0.00480895	101.023
-0.00345902	121.359
-0.000404978	140.036
0.00608403	153.735
0.0143507	161.21
0.0260389	164.537
0.0410819	167.866
0.0628545	169.954
0.0879819	172.044
0.106413	173.3
0.124844	174.556
0.14663	175.814
0.16843	176.242
0.183519	176.667
0.210338	177.928
0.222073	178.35
0.24051	179.191
0.26398	180.035
0.272361	180.455
0.292496	180.052
0.327721	180.073
0.352875	180.503
0.408202	182.196
0.369642	180.928
0.435047	181.797
0.48033	182.239
0.48033	182.239
0.515555	182.26
0.549103	182.28
0.609468	183.561
0.609468	183.561
0.629597	183.573
0.648048	183.584
0.681589	184.019
0.718499	183.626
0.758749	184.065
0.814096	184.513
0.832541	184.939
0.847631	185.364
0.866082	185.375
0.887894	184.973
0.901314	184.981
0.946583	186.253
0.958325	186.26
0.919772	184.577

File: ic501801f_page_5_2_des.txt
# Relative Pressure (p/p0)    Quantity Adsorbed
0.986827	 187.107
0.973434	185.439
0.946603	185.008
0.918081	185.406
0.918081	185.406
0.926468	185.411
0.897959	184.979
0.877823	185.382
0.840921	185.36
0.840921	185.36
0.825831	184.935
0.810735	184.926
0.788929	184.913
0.748665	185.304
0.748665	185.304
0.770477	184.902
0.733562	185.71
0.715117	185.284
0.696679	184.443
0.683253	184.85
0.661441	185.252
0.646364	183.998
0.627906	184.402
0.606087	185.219
0.585972	184.377
0.569198	184.367
0.53565	184.347
0.53565	184.347
0.554101	184.358
0.51218	183.503
0.48031	183.484
0.48031	183.484
0.498754	183.91
0.461859	183.473
0.438375	183.459
0.42664	183.037
0.404841	182.609
0.366261	182.586
0.366261	182.586
0.346139	182.159
0.332727	181.736
0.315953	181.726
0.292476	181.297
0.275702	181.287
0.26229	180.864
0.24051	179.191
0.222046	180.01
0.201937	178.753
0.18517	178.328
0.16841	177.487
0.149958	177.476
0.133211	175.806
0.114773	174.965
0.0946513	174.538

File: ic501801f_page_6_2_ads.txt
# Relative Pressure (p/p0)    Quantity Adsorbed
-0.00169851	 19.4501
0.0	39.5668
0.0	60.2985
0.00169851	80.4153
0.0	100.542
0.0	120.055
0.0	140.786
0.00339703	160.288
0.0186837	176.095
0.0288747	181.552
0.0543524	186.962
0.0713376	189.959
0.0900212	192.341
0.110403	193.499
0.135881	195.86
0.151168	195.813
0.174947	198.79
0.191932	198.738
0.212314	199.285
0.232696	199.833
0.253079	201.6
0.273461	201.538
0.290446	202.706
0.310828	203.253
0.332909	203.796
0.354989	204.948
0.371975	205.506
0.395754	205.433
0.412739	205.991
0.433121	206.539
0.453503	207.087
0.473885	207.024
0.485775	207.598
0.511253	208.13
0.531635	208.678
0.552017	208.616
0.574098	208.548
0.592781	208.491
0.613163	210.258
0.635244	209.581
0.652229	209.53
0.672611	210.687
0.691295	210.63
0.706582	211.193
0.735456	210.495
0.75414	211.048
0.777919	210.366
0.794904	212.143

File: ic501801f_page_6_2_des.txt
# Relative Pressure (p/p0)    Quantity Adsorbed
0.774522	 210.986
0.716773	210.552
0.706582	210.583
0.684501	210.651
0.667516	210.702
0.648832	210.15
0.631847	210.201
0.608068	209.664
0.591083	209.716
0.574098	209.768
0.557113	209.21
0.535032	208.667
0.519745	208.714
0.501062	208.771
0.478981	208.838
0.467091	208.265
0.448408	208.322
0.428025	207.164
0.409342	207.221
0.394055	206.658
0.371975	206.116
0.353291	205.563
0.339703	205.604
0.319321	204.447
0.300637	203.894
0.281953	203.951
0.261571	202.794
0.247983	202.225
0.227601	202.288
0.208917	201.125
0.193631	199.952
0.17155	198.8
0.154565	198.242
0.135881	196.47
0.118896	196.521
0.0985138	194.145

File: ic501849g-si_page_7_L-1_ads.txt
# Relative Pressure (p/p0)    Quantity Adsorbed
0.0106534	 55.4306
0.0329069	63.2222
0.0597755	68.5694
0.077759	70.4028
0.102508	72.3889
0.118266	73.4583
0.145303	74.6806
0.156571	75.1389
0.181364	76.0556
0.203919	76.5139
0.249022	77.5833
0.298658	78.1944
0.348294	78.8056
0.400194	79.2639
0.447573	79.875
0.501737	80.1806
0.551373	80.7917
0.598758	81.25
0.646137	81.8611
0.702558	82.1667
0.749944	82.625
0.79958	83.2361
0.819883	83.5417
0.846953	84.0
0.878543	84.3056
0.901097	84.7639
0.921388	85.375
0.948451	85.9861
0.959713	86.5972

File: ic501849g-si_page_7_L-1_des.txt
# Relative Pressure (p/p0)    Quantity Adsorbed
0.982223	 88.125
0.932619	86.75
0.882976	86.2917
0.83107	85.9861
0.781408	85.9861
0.734011	85.8333
0.679834	85.8333
0.648225	85.9861
0.580512	85.8333
0.546664	85.5278
0.499266	85.375
0.451875	85.0694
0.397711	84.7639
0.350314	84.6111
0.298414	84.1528
0.251028	83.6944
0.199141	82.9306
0.14726	82.0139
0.10217	80.6389
0.0503762	77.5833

File: ic501849g-si_page_7_L-2_ads.txt
# Relative Pressure (p/p0)    Quantity Adsorbed
0.981777	 57.0643
0.952164	57.0689
0.919514	56.8175
0.896735	56.5646
0.851177	56.6998
0.822703	56.7042
0.769552	56.4559
0.718299	56.4638
0.670843	56.4711
0.61959	56.6072
0.570235	56.6148
0.518983	56.6227
0.452544	56.7611
0.399393	56.8975
0.351936	56.7766
0.298785	56.7848
0.249431	56.6642
0.201974	56.5433
0.181093	56.5465
0.160213	56.4215
0.143128	56.1677
0.122248	56.1709
0.0975702	55.6619
0.0330296	54.3898
0.0254366	39.7755
0.00645406	37.4708
-0.00113895	30.1642
0.000759301	20.164
0.000759301	10.0357

File: ic501849g-si_page_7_L-2_des.txt
# Relative Pressure (p/p0)    Quantity Adsorbed
0.0475977	 60
0.0999615	60.6154
0.127296	60.6154
0.127296	60.6154
0.179688	60.6154
0.227524	60.6154
0.279923	60.4615
0.327766	60.3077
0.380172	60.0
0.428015	59.8462
0.478143	59.5385
0.528257	59.5385
0.576114	59.0769
0.626227	59.0769
0.678633	58.7692
0.731046	58.3077
0.778882	58.3077
0.83358	57.6923
0.879152	57.3846
0.929273	57.2308
0.979394	57.0769