Folder: Experimental-Data-Digitalization/data/nitrogen-adsorption-isotherms (part 11)

File: ja5063423-si_page_16_3-Co_ads.txt
# Relative Pressure (p/p0)    Quantity Adsorbed
0.997581	 405.134
0.990066	394.301
0.977539	376.697
0.929794	334.744
0.886926	323.959
0.85666	317.222
0.821329	313.204
0.783458	311.9
0.748127	307.882
0.717831	306.567
0.472918	300.122
0.435069	294.752
0.397183	296.158
0.356801	292.147
0.336591	293.53
0.293669	292.233
0.260841	292.277
0.223	285.551
0.190164	286.951
0.157335	286.996
0.114428	282.988
0.0816074	281.677
0.0513269	277.651
0.0235641	274.978
0.0134783	272.281
0.0134859	270.926
0.00088993	265.521
0.000927961	258.744
0.00357493	237.053
0.00386397	185.547
-0.000912749	136.758
-0.000684562	96.0953
-0.00291319	43.2369
0.00486039	7.98541
-0.000509618	64.9204
-0.000509618	64.9204
-0.000266218	21.5466
0.00428992	109.643
0.00420625	124.553
-0.00566665	83.9033
0.00152885	151.665
-0.006336	203.181
-0.00392482	223.509
-0.00392482	223.509
-0.00362057	169.292

File: ja5063423-si_page_16_3-Co_des.txt
# Relative Pressure (p/p0)    Quantity Adsorbed
0.984962	 403.796
0.969841	398.394
0.957253	391.634
0.858889	370.081
0.846293	364.676
0.810977	357.947
0.745396	344.482
0.715123	339.101
0.679785	336.438
0.641929	332.423
0.573792	324.383
0.573792	324.383
0.533395	323.082
0.500582	320.416
0.611656	327.042
0.472857	310.966
0.429966	304.247
0.399685	300.221
0.366857	300.266
0.334036	298.955
0.298697	296.292
0.220452	289.621
0.220452	289.621
0.260833	293.632
0.1876	293.732
0.111888	285.702
0.111888	285.702
0.0740087	285.753

File: ja5063423-si_page_16_3-La_ads.txt
# Relative Pressure (p/p0)    Quantity Adsorbed
-0.000190156	 7.99226
-0.00285234	32.3935
0.00223623	25.6094
-0.00293601	47.3032
-0.00301207	60.8575
-0.00301207	60.8575
-0.00313377	82.5444
-0.00313377	82.5444
-0.00309574	75.7673
-0.00578074	104.235
-0.000684562	96.0953
-0.000684562	96.0953
-0.000798655	116.427
-0.000897536	134.047
-0.000897536	134.047
-0.00348366	144.894
-0.00101163	154.379
-0.00107248	165.222
-0.00114094	177.421
-0.001217	190.976
-0.00129306	204.53
-0.00136152	216.729
-0.00141476	226.217
-0.00152125	245.193
-0.00152125	245.193
-0.00398567	234.353
0.00349126	251.963
0.0236402	261.424
0.0236402	261.424
0.0438043	268.174
0.0816454	274.899
0.117007	273.496
0.187692	277.467
0.187692	277.467
0.225563	278.771
0.225563	278.771
0.154863	277.511
0.260894	282.789
0.329092	279.986
0.29373	281.389
0.29373	281.389
0.397251	283.96
0.356847	284.014
0.356847	284.014
0.470476	285.216
0.435123	285.264
0.435123	285.264
0.543686	289.183
0.543686	289.183
0.503297	286.527
0.573982	290.497
0.611861	290.446
0.64469	290.401
0.687597	294.409
0.7179	294.368
0.748203	294.327
0.788585	298.339
0.851701	300.964
0.851701	300.964
0.81888	299.653
0.884522	302.275
0.924911	304.931
0.957725	307.597
0.970313	314.358
0.992979	325.17

File: ja5063423-si_page_16_3-La_des.txt
# Relative Pressure (p/p0)    Quantity Adsorbed
0.982886	 323.828
0.965239	318.431
0.932434	314.409
0.897103	310.391
0.823885	307.779
0.823885	307.779
0.788539	306.471
0.750683	302.456
0.685018	303.901
0.685018	303.901
0.717847	303.856
0.649672	302.593
0.611808	299.934
0.571411	298.633
0.543626	300.026
0.510805	298.715
0.475481	293.341
0.329069	284.052
0.329069	284.052
0.430064	286.626

File: ja5063423-si_page_16_3-Li_ads.txt
# Relative Pressure (p/p0)    Quantity Adsorbed
-0.00533197	 24.2643
0.0023199	10.6997
-0.0029208	44.5923
-0.000479193	59.4987
-0.000547649	71.6976
-0.000692168	97.4508
-0.000844293	124.559
-0.000844293	124.559
-0.00095078	143.535
-0.00355972	158.449
-0.0036586	176.069
-0.00380312	201.822
-0.00648812	230.29
-0.00664785	258.754
0.000775836	285.852
0.0031642	310.247
0.00556016	333.286
0.0509694	341.357
0.0812651	342.671
0.116619	342.623
0.151942	347.997
0.222635	350.612
0.222635	350.612
0.184756	350.663
0.257981	351.919
0.298385	351.865
0.333739	351.817
0.361517	351.779
0.394338	353.09
0.439785	354.384
0.472614	354.339
0.497859	355.661
0.535723	358.32
0.573609	356.913
0.616524	359.566
0.649352	359.521
0.682188	358.122
0.717535	359.429
0.750348	362.095
0.778126	362.058
0.821071	359.289
0.861475	359.234
0.894288	361.9
0.929657	359.142
0.964996	361.805
0.992721	371.255

File: ja5063423-si_page_16_3-Li_des.txt
# Relative Pressure (p/p0)    Quantity Adsorbed
0.99269	 376.677
0.942261	363.191
0.891763	361.904
0.821033	366.066
0.750348	362.095
0.679633	363.547
0.608948	359.576
0.568551	358.276
0.543299	358.31
0.500377	357.013
0.472599	357.05
0.434727	355.746
0.396848	355.797
0.361502	354.49
0.331206	353.176
0.257988	350.564
0.257988	350.564
0.222642	349.256
0.146892	348.004
0.146892	348.004
0.189806	350.656
0.114056	349.404
0.0812423	346.737
0.0509466	345.423
0.0307672	341.384
0.0131132	337.342
0.00556777	331.93
0.000578074	321.094
-0.00177225	289.922
-0.00408455	251.973
-0.00389439	218.088
0.00392482	174.704
-0.00339238	128.629
-0.0031718	89.3216
-0.00547649	50.0175
0.00233512	7.98883

File: ja5063423-si_page_17_4-CH3_ads.txt
# Relative Pressure (p/p0)    Quantity Adsorbed
-0.000316848	 8.67769
0.00271962	26.0331
-0.00701027	41.9421
-0.000778919	59.2975
0.00227075	75.2066
0.00517519	107.025
0.00517519	107.025
-0.0013334	120.041
-0.00475273	144.628
-0.00484514	154.752
-0.00492435	163.43
-0.00821165	173.554
-0.00831727	185.124
-0.0052412	198.14
-0.00215193	209.711
0.00732712	221.281
0.00732712	221.281
0.0359755	232.851
0.0359755	232.851
0.122158	241.529
0.150899	242.975
0.150899	242.975
0.182835	244.421
0.211549	248.76
0.256278	248.76
0.294603	250.207
0.326539	251.653
0.364851	254.545
0.431944	254.545
0.393605	254.545
0.467035	260.331
0.534167	255.992
0.534167	255.992
0.495828	255.992
0.566103	257.438
0.607583	263.223
0.639559	260.331
0.681092	260.331
0.709793	266.116
0.751327	266.116
0.780068	267.562
0.815198	269.008
0.850276	276.24
0.888588	279.132
0.9109	284.917
0.955509	297.934
0.96817	310.95
0.977649	322.521
0.987102	336.983

File: ja5063423-si_page_17_4-CH3_des.txt
# Relative Pressure (p/p0)    Quantity Adsorbed
0.97753	 335.537
0.96483	326.86
0.952143	316.736
0.926689	305.165
0.885208	299.38
0.85652	292.149
0.815066	283.471
0.776727	283.471
0.751182	282.025
0.709701	276.24
0.671375	274.793
0.633037	274.793
0.607517	270.455
0.569192	269.008
0.540438	269.008
0.498917	267.562
0.473424	260.331
0.431917	257.438
0.396787	255.992
0.361643	255.992
0.326552	250.207
0.291408	250.207
0.249861	251.653
0.221107	251.653
0.154068	245.868
0.154068	245.868
0.0774562	238.636
0.0774562	238.636
0.0168062	232.851
0.0105748	215.496
0.00118818	193.802
0.00147863	161.983
-0.00450189	117.149
0.00234996	66.5289
0.00234996	66.5289
0.00608613	7.2314

File: ja5063423-si_page_17_4-NH2_ads.txt
# Relative Pressure (p/p0)    Quantity Adsorbed
0.991498	 205.372
0.97555	202.479
0.943614	201.033
0.918068	199.587
0.882925	199.587
0.844612	196.694
0.806274	196.694
0.780728	195.248
0.742389	195.248
0.710427	196.694
0.678491	195.248
0.636971	193.802
0.605022	193.802
0.57306	195.248
0.531553	192.355
0.509189	192.355
0.47085	192.355
0.432511	192.355
0.403757	192.355
0.359055	189.463
0.323885	192.355
0.282365	190.909
0.260014	189.463
0.22487	189.463
0.186531	189.463
0.154609	186.57
0.109907	183.678
0.046009	183.678
0.046009	183.678
0.0779315	186.57
0.0268529	182.231
0.0173078	177.893
0.0045679	173.554
0.00145222	164.876
0.00159744	148.967
0.00505637	120.041
0.00541283	80.9917
-0.00703668	44.8347
-0.000316848	8.67769

File: ja5063423-si_page_17_4-NH2_des.txt
# Relative Pressure (p/p0)    Quantity Adsorbed
0.943627	 199.587
0.892549	195.248
0.819066	195.248
0.767935	196.694
0.604982	198.14
0.477213	195.248
0.499591	193.802
0.541085	198.14
1.00429	203.926
0.32704	196.694
0.397302	199.587
0.250403	192.355
0.183297	193.802
0.106659	189.463
0.0491907	185.124
0.0109049	179.339
-0.00487154	157.645
-0.0045679	124.38
-0.00114858	99.7934
-0.000884535	70.8678
-0.000699707	50.6198
-0.00348533	5.78512

File: ja5063423-si_page_17_5-CH3_ads.txt
# Relative Pressure (p/p0)    Quantity Adsorbed
0.0140818	 226.629
0.00854797	55.3102
0.00854797	14.8725
0.0104012	205.972
0.00912709	196.702
0.00912709	186.292
0.00912709	176.16
0.00912709	165.888
0.00912709	115.503
0.00912709	106.065
0.00912709	95.5157
0.00912709	85.2443
0.00912709	74.8341
0.00912709	65.118
0.00912709	45.1304
0.00912709	34.5815
0.00912709	24.5877
0.00912709	5.2942
0.0267236	231.097
0.0386624	231.923
0.0514032	236.887
0.0780429	238.194
0.0909766	240.362
0.114978	243.215
0.128178	243.742
0.148696	244.363
0.160278	244.499
0.195798	250.348
0.218191	249.285
0.230353	249.367
0.254097	251.511
0.266644	251.775
0.262783	248.481
0.290002	253.712
0.306218	250.632
0.34637	254.546
0.371659	254.968
0.395403	259.661
0.438258	258.872
0.466056	263.092
0.507367	261.965
0.515282	262.23
0.546242	264.358
0.577171	265.406
0.584777	265.727
0.616896	267.468
0.653113	269.641
0.676471	272.032
0.689598	270.184
0.724925	271.746
0.759093	272.94
0.785038	276.562
0.794419	274.548
0.821381	277.928
0.830325	276.155
0.855227	278.984
0.86681	278.317
0.887658	284.744
0.900399	280.854
0.926807	286.298
0.934104	287.092
0.956271	297.354
0.968215	299.001
0.969315	293.142
0.983628	306.146
0.992055	315.961
0.989584	307.544
0.999622	317.985
1.00812	333.193

File: ja5063423-si_page_17_5-CH3_des.txt
# Relative Pressure (p/p0)    Quantity Adsorbed
0.986525	 332.555
0.966957	325.772
0.953064	314.942
0.936343	305.46
0.883069	298.632
0.860654	294.547
0.818539	293.139
0.790488	290.398
0.753971	290.349
0.711894	286.238
0.647308	284.799
0.608002	283.395
0.608002	283.395
0.579912	283.357
0.537797	281.949
0.512574	277.861
0.476134	272.406
0.436941	262.894
0.403272	260.145
0.358329	260.085
0.333068	258.699
0.248856	254.531
0.248856	254.531
0.229194	254.505
0.161874	247.657
0.122606	243.55
0.0917269	242.157
0.0440699	235.336
0.0440699	235.336
0.0329101	229.915
0.0133614	221.781
-0.00271404	166.354
0.000455503	140.682
0.00666173	98.7986
0.00153732	63.6566
0.00482074	29.8772
0.00514339	6.90467
-0.0058646	190.674

File: ja5063423-si_page_17_5-NH2_ads.txt
# Relative Pressure (p/p0)    Quantity Adsorbed
0.997172	 374.461
0.991687	364.995
0.977756	356.868
0.963844	347.389
0.921824	339.225
0.882537	336.469
0.857314	332.381
0.81797	333.679
0.778663	332.274
0.742166	330.874
0.705669	329.473
0.646681	329.393
0.646681	329.393
0.565298	323.878
0.565298	323.878
0.610203	326.641
0.542789	326.55
0.503445	327.848
0.466967	325.096
0.419234	323.68
0.382736	322.28
0.351857	320.887
0.301277	322.17
0.228245	322.071
0.228245	322.071
0.18892	322.018
0.149633	319.262
0.0766384	316.461
0.0766384	316.461
0.0514149	312.373
0.0261914	308.284
0.0150506	301.513
0.0150506	301.513
0.00390973	294.741
0.00413749	278.525
-0.00415647	269.054
-0.00396667	255.541
-0.00396667	255.541
-0.0038528	247.433
-0.00356811	227.163
-0.00356811	227.163
-0.00368198	235.271
-0.000588358	215.005
-0.00053142	210.951
-0.000493462	208.248
-0.00318852	200.137
-0.00303669	189.326
-0.00286587	177.164
-0.00280894	173.11
-0.0026571	162.3
-0.00239139	143.381
-0.00222058	131.219
-0.00216364	127.165
-0.00201181	116.354
-0.00185997	105.544
-0.00168916	93.3819
-0.00157528	85.274
-0.00144243	75.8147
-0.00408055	63.649
0.00451707	51.4984
0.00459299	46.0931
-0.000873048	35.2749
-0.000740192	25.8156
-0.000645296	19.059
-0.000493462	8.2484

File: ja5063423-si_page_17_5-NH2_des.txt
# Relative Pressure (p/p0)    Quantity Adsorbed
0.966445	 362.258
0.966445	362.258
0.932889	351.402
0.932889	351.402
0.958113	355.49
0.890888	341.885
0.851582	340.481
0.82076	335.034
0.742147	332.225
0.714058	332.187
0.714058	332.187
0.643854	330.741
0.643854	330.741
0.57084	329.291
0.57084	329.291
0.511853	329.211
0.511853	329.211
0.32373	323.551
0.32373	323.551
0.466967	325.096
0.466967	325.096
0.393915	326.349
0.292832	323.51
0.264723	324.823
0.188958	319.315
0.146824	319.258
0.0822752	315.117
0.0822752	315.117
0.045816	311.014
0.0122037	304.212
0.00679459	289.339
0.00411851	279.876
-0.00111978	252.842
-0.00111978	252.842
-0.00079713	229.87
0.00516237	205.553
-0.00292281	181.218
0.00315056	148.794
0.00343525	128.524
0.0038528	98.7948
0.0038528	98.7948
-0.00117672	56.8961
-0.00117672	56.8961
-0.000892027	36.6262
0.0042134	73.1196
0.0042134	73.1196
0.000132855	163.655
0.00233445	6.90087
0.00233445	6.90087
0.00489666	24.4719

File: ja5063423_page_6_1_ads.txt
# Relative Pressure (p/p0)    Quantity Adsorbed
-0.101137	 275.78
-0.00302076	271.73
-0.00324865	210.563
-0.00283674	149.764
-0.00243201	90.0265
-0.00202297	29.6522
0.000954509	286.697
-0.00183907	246.29
-0.00102341	125.9
-0.00143345	186.421
-0.000611671	65.1268
0.0176852	289.902
0.0360138	293.285
0.0508017	294.963
0.0794956	296.338
0.0906341	297.828
0.116571	299.085
0.131699	297.68
0.151406	299.02
0.170554	300.73
0.186994	299.767
0.209864	300.643
0.223026	300.454
0.254539	300.928
0.267994	301.776
0.290873	301.228
0.308283	303.436
0.326811	301.624
0.344622	302.919
0.362053	301.998
0.394923	301.66
0.405726	303.883
0.431158	301.665
0.450871	303.987
0.46685	301.96
0.487898	303.544
0.503186	301.977
0.532914	302.223
0.54447	303.089
0.569252	301.886
0.587412	303.087
0.605591	301.549
0.625949	303.338
0.641926	301.679
0.673308	301.62
0.689266	302.735
0.709642	301.962
0.730007	302.703
0.745347	300.298
0.778108	301.159
0.79263	302.96
0.813543	304.032
0.831854	303.247
0.850008	305.435
0.871088	302.249
0.886376	300.725
0.88795	312.096
0.914436	303.271
0.930952	303.414
0.95154	302.454
0.970585	304.329
0.988751	304.67
0.998668	303.648

File: ja5063423_page_6_1_des.txt
# Relative Pressure (p/p0)    Quantity Adsorbed
0.938155	 304.779
0.818942	300.729
0.772839	305.539
0.117033	302.424
0.252528	303.333
0.179355	303.67
0.179355	303.67
0.29588	304.666
0.434085	305.564
0.602112	304.791
0.675285	304.455
0.534338	308.168
0.0818225	299.52
0.217318	300.43
0.0439017	296.629
0.0060017	290.673
-0.00743464	273.877
-0.00699853	209.507
-0.00412228	184.973
-0.00117334	149.71
-0.00072685	83.8079
-0.000363425	30.1663

File: ja5063423_page_6_2_ads.txt
# Relative Pressure (p/p0)    Quantity Adsorbed
-0.00269603	 238.697
-0.00263824	178.51
-0.00398418	119.668
-0.00151863	57.8568
-0.00166082	219.981
-0.0015843	208.687
-0.00152188	199.474
-0.000831656	155.64
-0.00112492	140.883
-0.00937189	139.222
-0.00249616	99.4945
-0.000727485	82.2209
-0.00067494	74.4654
-0.000411596	35.5957
0.000758936	16.7931
-0.00173992	109.765
0.00211303	257.181
0.015596	264.661
0.00702481	238.155
0.00742666	178.842
0.00851197	59.2805
0.00824776	220.169
0.00836958	202.188
0.00864803	161.089
0.00948653	37.3263
0.00960677	19.5791
0.0113407	251.211
0.0327033	267.267
0.0496313	270.674
0.0785524	274.523
0.0970611	275.569
0.113685	274.948
0.150307	275.591
0.165856	278.989
0.185852	276.295
0.204386	280.213
0.221831	277.237
0.255997	277.818
0.265509	278.531
0.291941	277.645
0.310079	282.062
0.329367	279.327
0.350391	280.289
0.363048	278.367
0.39638	278.796
0.411391	280.351
0.431936	277.877
0.465261	278.409
0.483519	279.396
0.501959	277.886
0.534632	278.035
0.544626	280.049
0.571053	279.928
0.589218	280.311
0.605841	278.107
0.640429	278.862
0.658583	280.926
0.676627	280.484
0.709776	282.092
0.727938	282.943
0.7461	283.836
0.779527	283.751
0.797276	287.528
0.815087	288.933
0.846757	297.723
0.849134	292.193
0.866548	301.92
0.883954	304.712
0.894614	303.659
0.916345	323.307
0.925847	325.465
0.958625	363.143
0.987321	428.56
0.996158	430.221

File: ja5063423_page_6_2_des.txt
# Relative Pressure (p/p0)    Quantity Adsorbed
0.975277	 425.681
0.975277	425.681
0.94559	407.426
0.961788	416.547
0.926879	369.198
0.878336	334.172
0.856707	326.609
0.816097	320.665
0.780886	317.762
0.745675	314.859
0.745675	314.859
0.677922	315.17
0.677922	315.17
0.718574	314.983
0.60748	312.429
0.60748	312.429
0.572249	312.591
0.534318	311.233
0.534318	311.233
0.504486	314.435
0.420535	305.626
0.350175	290.624
0.398926	294.997
0.328495	290.723
0.328495	290.723
0.287853	289.378
0.258052	287.982
0.222811	289.677
0.149669	285.415
0.1903	288.294
0.1903	288.294
0.119889	280.954
0.0467572	275.16
0.0467572	275.16
0.0196976	269.155
-0.00191058	258.526
-0.00176521	237.069
0.0014537	161.959
-0.000841069	100.667
-0.000571096	60.8186
-0.000280356	17.9054

File: ja5111317_page_5_PCN-228_ads.txt
# Relative Pressure (p/p0)    Quantity Adsorbed
-0.0155653	 60.8631
-0.0128799	238.35
-0.0130346	187.356
-0.00812982	401.876
-0.00649952	288.97
-0.003496	312.579
0.0114924	533.717
0.0162922	577.583
0.0225852	619.017
0.0260475	655.652
0.0333849	714.34
0.027466	685.558
0.036113	835.493
0.0389925	759.134
0.045387	905.435
0.0444811	799.881
0.0519405	946.591
0.0608781	976.858
0.0704997	1013.48
0.0800736	1057.91
0.0901697	1092.59
0.100389	1126.16
0.140408	1127.13
0.15765	1137.47
0.190779	1151.8
0.208911	1156.27
0.226005	1161.19
0.242929	1185.96
0.260198	1169.78
0.276981	1174.34
0.291282	1177.5
0.313815	1183.75
0.370777	1189.69
0.386131	1192.18
0.403674	1196.04
0.419168	1198.3
0.437456	1197.29
0.454561	1199.67
0.48878	1202.39
0.504821	1222.45
0.521446	1204.67
0.538402	1208.81
0.555083	1213.21
0.57302	1211.89
0.590468	1210.36
0.606681	1212.17
0.625659	1213.18
0.642459	1214.26
0.659883	1214.98
0.694097	1218.88
0.711343	1221.4
0.728312	1222.73
0.743691	1219.64
0.763017	1221.25
0.77919	1223.36
0.79677	1224.03
0.813883	1224.74
0.830991	1226.32
0.848248	1229.55
0.863002	1226.03
0.884276	1228.25
0.902552	1229.72
0.919352	1230.74
0.936778	1231.15
0.948177	1233.6

File: ja5111317_page_5_PCN-228_des.txt
# Relative Pressure (p/p0)    Quantity Adsorbed
-0.0155653	 60.8631
-0.00916029	347.053
-0.0128799	238.35
-0.0130346	187.356
-0.00418015	442.64
-0.00812982	401.876
-6.18039e-05	517.573
-0.00162828	481.76
-0.00649952	288.97
0.00483152	610.165
0.00853252	638.271
0.0133262	666.728
0.0170515	706.399
0.0247146	759.453
0.0315085	799.106
0.0361108	835.987
0.0352856	880.108
0.045387	905.435
0.0519405	946.591
0.0608781	976.858
0.0704997	1013.48
0.0800736	1057.91
0.0901697	1092.59
0.100389	1126.16
0.155743	1179.95
0.189607	1192.21
0.207168	1197.14
0.225806	1204.45
0.26001	1210.6
0.277265	1214.19
0.294049	1218.76
0.310623	1220.12
0.327892	1224.42
0.345956	1223.43
0.362631	1226.88
0.379037	1231.07
0.398707	1232.04
0.414978	1235.26
0.433852	1236.6
0.45127	1238.49
0.470552	1241.24
0.48808	1241.85
0.50726	1244.17
0.524528	1248.85
0.544037	1237.44
0.564983	1235.58
0.579741	1250.44
0.614747	1251.43
0.632022	1250.66
0.648812	1253.93
0.665911	1257.74
0.683376	1257.01
0.700943	1241.53
0.717572	1257.3
0.735339	1259.59
0.751482	1259.65
0.7686	1259.23
0.785848	1264.47
0.805915	1265.5
0.826145	1265.08
0.846372	1265.33
0.864471	1259.88
0.883509	1261.97
0.898906	1270.59
0.915745	1270.67
0.933484	1270.71
0.947711	1270.44

File: ja5111317_page_5_PCN-229_ads.txt
# Relative Pressure (p/p0)    Quantity Adsorbed
-0.0137729	 235.15
-0.0110756	268.968
0.000511466	366.024
-0.00513939	331.594
0.0246057	461.496
0.031892	501.228
0.0399449	543.424
0.0464246	592.435
0.0599606	668.622
0.056515	628.367
0.0699543	797.407
0.0660189	712.749
0.0680275	759.378
0.0725844	837.295
0.0723376	740.526
0.0865432	933.662
0.0994022	1002.24
0.109882	1035.48
0.119778	1083.04
0.138892	1156.18
0.146524	1188.37
0.16334	1219.66
0.179632	1244.87
0.185029	1274.27
0.199745	1288.63
0.210369	1313.12
0.226807	1325.24
0.243881	1334.47
0.260704	1341.64
0.27804	1350.2
0.295136	1354.67
0.312233	1358.85
0.329984	1361.78
0.346433	1365.84
0.363539	1367.92
0.380637	1371.97
0.397736	1375.65
0.414835	1379.29
0.431942	1381.39
0.449045	1384.2
0.466153	1385.78
0.483261	1387.73
0.500365	1390.32
0.517471	1392.5
0.534574	1395.33
0.551682	1397.03
0.568783	1400.42
0.585896	1401.06
0.603007	1402.14
0.620109	1405.08
0.638768	1407.92
0.655877	1409.43
0.67299	1410.21
0.69009	1413.65
0.707202	1414.61
0.723546	1413.29
0.741428	1415.79
0.758537	1417.49
0.775642	1419.8
0.809861	1422.77
0.826973	1423.57
0.844082	1425.02
0.860667	1427.83
0.877902	1430.05
0.895267	1432.35
0.912522	1430.29
0.929643	1429.21
0.945783	1438.53

File: ja5111317_page_5_PCN-229_des.txt
# Relative Pressure (p/p0)    Quantity Adsorbed
-0.0171305	 62.8827
-0.0137729	235.15
-0.014603	190.055
-0.00762837	308.885
-0.0110756	268.968
0.000511466	366.024
-0.00513939	331.594
0.00575921	408.301
0.0120908	449.33
0.0181368	497.848
0.0122131	110.852
0.0123933	71.6474
0.0244198	544.271
0.0318329	590.715
0.0362926	627.125
0.0434188	679.768
0.052251	794.383
0.0538424	758.456
0.056044	854.987
0.0556224	822.578
0.0632954	902.315
0.0759372	972.998
0.0839084	999.125
0.0946337	1060.03
0.103939	1087.18
0.111403	1127.68
0.119752	1165.52
0.129127	1192.93
0.140347	1230.25
0.156622	1248.23
0.187599	1330.73
0.202043	1344.8
0.220389	1367.5
0.237612	1378.08
0.253169	1382.45
0.271647	1386.97
0.288409	1396.39
0.305809	1402.28
0.341555	1411.57
0.359751	1413.43
0.37763	1416.86
0.394107	1420.29
0.412001	1420.43
0.430184	1425.22
0.446594	1428.29
0.465077	1431.81
0.4815	1432.26
0.498137	1434.94
0.515705	1438.22
0.532509	1438.42
0.549929	1439.86
0.568989	1440.13
0.585688	1446.3
0.603569	1449.14
0.621619	1445.99
0.637896	1447.23
0.655682	1452.02
0.672639	1452.7
0.689899	1455.22
0.707005	1457.42
0.724834	1456.19
0.741229	1459.16
0.758493	1460.92
0.775459	1459.66
0.809666	1465.04
0.827564	1464.16
0.845758	1466.73
0.863064	1470.47
0.882772	1470.82
0.900056	1471.9
0.916232	1469.43
0.934738	1471.75
0.944999	1473.79

File: ja5111317_page_5_PCN-230_ads.txt
# Relative Pressure (p/p0)    Quantity Adsorbed
-0.0261161	 -182.674
0.00671478	103.421
0.0046538	62.8227
0.00738394	33.0558
0.00898408	216.504
0.00725636	173.679
0.00794081	145.666
0.00803275	4.73525
0.0163798	266.107
0.0207175	310.623
0.0276306	348.786
0.0443164	428.969
0.056508	460.595
0.064786	506.123
0.080858	579.413
0.0851518	612.482
0.0917341	639.32
0.10505	690.341
0.119814	736.571
0.133389	773.557
0.14772	815.11
0.171121	883.934
0.177621	918.226
0.184881	967.822
0.177502	880.576
0.185825	931.674
0.197297	995.987
0.215901	1015.79
0.233319	1025.57
0.250792	1028.58
0.267704	1031.76
0.284149	1036.71
0.301242	1041.76
0.318335	1046.67
0.335434	1050.48
0.352534	1054.03
0.369635	1057.17
0.386744	1058.68
0.403846	1061.82
0.420946	1065.42
0.438041	1069.84
0.455268	1074.06
0.472622	1078.7
0.490567	1079.68
0.506441	1083.95
0.522902	1085.36
0.540256	1090
0.557736	1095.56
0.574845	1096.94
0.591953	1098.84
0.609059	1100.97
0.626173	1101.31
0.643284	1102.52
0.660394	1103.73
0.677506	1104.69
0.694612	1106.89
0.711727	1107.11
0.728839	1107.95
0.745953	1108.41
0.763066	1109.13
0.780173	1111.08
0.797279	1113.15
0.814515	1115.38
0.832097	1116.03
0.849687	1117.1
0.865715	1119.35
0.88217	1122.04
0.899923	1124.61
0.917623	1127.77
0.934137	1128.51
0.948121	1132.97

File: ja5111317_page_5_PCN-230_des.txt
# Relative Pressure (p/p0)    Quantity Adsorbed
-0.00374879	 28.9982
0.000707554	155.674
0.000536082	112.371
0.000673552	82.4575
0.00364464	265.486
0.00313893	223.165
0.00240064	195.713
0.00718955	317.675
0.0145468	359.224
0.0225144	387.531
0.0282391	420.604
0.0385877	453.282
0.0447098	507.281
0.0644323	552.321
0.133165	822.222
0.138967	857.698
0.150673	890.202
0.159377	930.786
0.174259	1001.52
0.181421	1043.56
0.198487	1054.49
0.217127	1061.4
0.233518	1068.69
0.251826	1072.85
0.270581	1077.31
0.287048	1083.09
0.304301	1090.86
0.322803	1090.34
0.339905	1093.37
0.358557	1097.62
0.375274	1099.95
0.392452	1103.4
0.410329	1106.98
0.426772	1109.62
0.444047	1117.27
0.460777	1126.11
0.478234	1127.14
0.494714	1130.18
0.513681	1133.72
0.530745	1137.41
0.549593	1136.8
0.56686	1141.61
0.583343	1143.9
0.60263	1145.6
0.619047	1147.18
0.636851	1148.05
0.655536	1145.19
0.672943	1149.55
0.689743	1150.55
0.70872	1151.91
0.725518	1153.48
0.744175	1156.81
0.761914	1156.51
0.777777	1158.3
0.795515	1158.52
0.812458	1162.3
0.829721	1164.09
0.847867	1165.73
0.863617	1169.55
0.882595	1170.78
0.899365	1170.72
0.916814	1173.53
0.935809	1170.98
0.947949	1170.32
0.124683	774.062
0.102714	754.503
0.0918916	709.384
0.0883925	670.785
0.0774523	651.367

File: jacs.5b00365-si_page_40_MUF-7a_ads.txt
# Relative Pressure (p/p0)    Quantity Adsorbed
-0.00374824	 24.9435
-0.00241052	122.683
-0.00133545	74.2158
-4.39844e-05	170.933
0.00110787	211.177
0.00267857	311.38
0.00269603	254.171
0.004354	425.682
0.00403985	365.835
0.00561862	484.873
0.00709401	531.47
0.00864726	619.555
0.0117081	684
0.0130191	734.204
0.00697184	131.662
0.00843783	651.66
0.00843783	586.102
0.00843783	167.421
0.0174537	785.206
0.0128358	426.675
0.0227313	830.084
0.0172338	618.881
0.0283335	868.237
0.0216318	736.29
0.0342393	904.656
0.0304277	827.476
0.0432959	939.72
0.050463	974.883
0.0593618	1011.92
0.0678594	1049.88
0.074041	1091.72
0.0773395	1136.58
0.0826334	1175.32
0.0884811	1217.25
0.097691	1252.91
0.112523	1268.78
0.128649	1281.64
0.144775	1291.33
0.160608	1300.61
0.176101	1307.32
0.193412	1313.73
0.210294	1322.14
0.224232	1326.76
0.240553	1329.2
0.257657	1336.64
0.274369	1336.95
0.289909	1343.68
0.302369	1344.99
0.328024	1348.96
0.345729	1350.8
0.355145	1352.69
0.393896	1355.02
0.404465	1356.84
0.444296	1360.6
0.453367	1366.1
0.477556	1366.84
0.493682	1369.42
0.503944	1368.83
0.54657	1370.86
0.555986	1373.55
0.581641	1375.78
0.597767	1374.4
0.606563	1377.27
0.649077	1381.61
0.658606	1381.74
0.699507	1381.94
0.715047	1384.86
0.731173	1385.4
0.746565	1387.7
0.800074	1389.87
0.809603	1389.94
0.84464	1387.7
0.853583	1391.43
0.895477	1391.94
0.91149	1393.66
0.927616	1393.66
0.943742	1396.1
0.953271	1395.9
0.989015	1392.79
0.998961	1395.4