Folder: Experimental-Data-Digitalization/data/nitrogen-adsorption-isotherms (part 8)

File: ja406030p-si_page_18_tp-PMBB-1-lon-e-fdc_des.txt
# Relative Pressure (p/p0)    Quantity Adsorbed
0.946987	 475.339
0.93656	475.339
0.911528	477.274
0.888472	477.274
0.869646	477.274
0.847923	477.274
0.830534	479.963
0.810259	479.963
0.792881	479.963
0.768261	479.963
0.752331	479.963
0.72916	479.963
0.716126	479.963
0.690053	481.307
0.672674	481.307
0.646607	481.307
0.635021	481.307
0.610402	481.307
0.594471	481.307
0.568404	481.307
0.555365	482.652
0.532188	483.996
0.514815	482.652
0.493092	482.652
0.467029	481.307
0.449645	482.652
0.427922	482.652
0.406204	481.307
0.385924	482.652
0.365649	482.652
0.348271	482.652
0.328001	481.307
0.30483	481.307
0.286003	481.307
0.265728	481.307
0.246912	478.619
0.225188	478.619
0.207815	477.274
0.188988	477.274
0.165832	473.242
0.148459	471.897
0.126736	471.897
0.106476	467.865
0.0847678	463.832
0.0674045	459.799
0.0500512	453.078

File: ja406030p-si_page_18_tp-PMBB-1-lon-e-H_ads.txt
# Relative Pressure (p/p0)    Quantity Adsorbed
-0.000509906	 33.6689
0.000786921	73.9966
-0.000969094	155.996
-0.00267969	225.898
-0.00274529	243.373
-0.00136268	260.849
-0.00143333	279.668
0.00285074	295.799
0.00279524	310.586
0.00564119	324.029
0.0099404	336.127
0.0142547	344.193
0.0214756	349.57
0.0344842	356.291
0.0561872	361.668
0.0648764	361.668
0.0865844	365.701
0.109741	369.734
0.13	373.767
0.169102	373.767
0.169102	373.767
0.150275	373.767
0.187913	377.799
0.20674	377.799
0.228463	377.799
0.248733	379.144
0.270446	381.832
0.282032	381.832
0.305203	381.832
0.326931	380.488
0.348649	381.832
0.368914	384.521
0.390647	381.832
0.409474	381.832
0.426842	384.521
0.450019	383.176
0.467392	384.521
0.48912	383.176
0.509395	383.176
0.548502	381.832
0.548502	381.832
0.526774	383.176
0.567324	383.176
0.59048	387.209
0.607879	381.832
0.628143	384.521
0.648423	383.176
0.66725	383.176
0.690426	381.832
0.706357	381.832
0.725178	383.176
0.746896	384.521
0.765733	381.832
0.786003	383.176
0.80483	383.176
0.823666	380.488
0.842488	381.832
0.862763	381.832
0.887393	379.144
0.903318	380.488
0.925036	381.832

File: ja406030p-si_page_18_tp-PMBB-1-lon-e-H_des.txt
# Relative Pressure (p/p0)    Quantity Adsorbed
0.943873	 379.144
0.91346	379.144
0.91346	379.144
0.932282	380.488
0.887383	381.832
0.870004	381.832
0.851177	381.832
0.832346	383.176
0.810628	381.832
0.793244	383.176
0.772964	384.521
0.752689	384.521
0.735311	384.521
0.707795	384.521
0.686072	384.521
0.66724	385.865
0.649851	388.553
0.63103	387.209
0.612203	387.209
0.594824	387.209
0.571653	387.209
0.554275	387.209
0.532552	387.209
0.506484	387.209
0.489105	387.209
0.467377	388.553
0.44855	388.553
0.428286	385.865
0.409454	387.209
0.386283	387.209
0.367456	387.209
0.347181	387.209
0.32401	387.209
0.310976	387.209
0.286361	385.865
0.26754	384.521
0.247265	384.521
0.22699	384.521
0.206715	384.521
0.187893	383.176
0.167628	380.488
0.148807	379.144
0.127094	376.455
0.106824	375.111
0.0865642	371.078
0.0677476	368.389
0.047503	360.324

File: ja406030p-si_page_18_tp-PMBB-1-lon-e-NO2_ads.txt
# Relative Pressure (p/p0)    Quantity Adsorbed
-0.000509906	 33.6689
-0.000822759	117.013
-0.000893404	135.833
0.0207288	162.718
0.0207288	162.718
0.0337425	168.095
0.0134878	162.718
0.00914817	161.374
0.0482195	169.439
0.0931038	172.128
0.113384	170.783
0.130752	173.472
0.130752	173.472
0.17275	173.472
0.187242	170.783
0.223458	168.095
0.211862	170.783
0.248082	166.751
0.285736	166.751
0.319029	170.783
0.319029	170.783
0.346545	170.783
0.371165	170.783
0.390007	166.751
0.405927	169.439
0.452279	166.751
0.452279	166.751
0.429103	168.095
0.487036	166.751
0.487036	166.751
0.468215	165.406
0.505873	164.062
0.547871	164.062
0.547871	164.062
0.526143	165.406
0.566703	162.718
0.586978	162.718
0.608711	160.029
0.626085	161.374
0.659403	158.685
0.659403	158.685
0.685461	161.374
0.685461	161.374
0.708648	157.341
0.724578	157.341
0.744858	155.996
0.766576	157.341
0.785413	154.652
0.802796	153.308
0.82017	154.652
0.844799	151.964
0.867976	150.619
0.867976	150.619
0.883901	151.964
0.905629	150.619
0.921559	150.619

File: ja406030p-si_page_18_tp-PMBB-1-lon-e-NO2_des.txt
# Relative Pressure (p/p0)    Quantity Adsorbed
0.951977	 149.275
0.93315	149.275
0.915766	150.619
0.891142	151.964
0.870867	151.964
0.852035	153.308
0.831755	154.652
0.810032	154.652
0.79554	157.341
0.773817	157.341
0.75499	157.341
0.734715	157.341
0.711534	160.029
0.691259	160.029
0.670984	160.029
0.647813	160.029
0.636222	161.374
0.615942	162.718
0.594214	164.062
0.571038	165.406
0.549314	165.406
0.530478	168.095
0.511656	166.751
0.495711	170.783
0.475441	169.439
0.466751	169.439
0.450811	172.128
0.431984	172.128
0.410261	172.128
0.389991	170.783
0.369717	170.783
0.339299	172.128
0.316133	170.783
0.292951	173.472
0.268327	174.816
0.259638	174.816
0.232122	174.816
0.210399	174.816
0.194468	174.816
0.172745	174.816
0.151017	176.16
0.127861	172.128
0.107571	176.16
0.0858527	174.816
0.0699224	174.816
0.0496475	174.816

File: ja406844r-si_page_12_PCN-225(Zn)_ads.txt
# Relative Pressure (p/p0)    Quantity Adsorbed
-0.00634926	 19.0625
-0.00257475	56.5625
-0.00279534	112.8125
-0.00293015	147.188
-0.00530147	251.875
-0.00149632	281.563
-0.0055527	315.938
-0.00563235	336.25
-0.00183946	369.063
-0.00183946	369.063
-0.00396569	411.25
0.0213223	462.8125
0.0213223	462.8125
0.0565613	476.875
0.0565613	476.875
0.084	480
0.125152	486.25
0.125152	486.25
0.168265	492.5
0.168265	492.5
0.146702	490.938
0.1859	495.625
0.201592	494.0625
0.219239	494.0625
0.236874	497.188
0.264319	498.75
0.250593	498.75
0.285887	498.75
0.325085	503.438
0.325085	503.438
0.346653	503.438
0.346653	503.438
0.305489	500.3125
0.364306	501.875
0.385881	500.3125
0.403516	503.438
0.427033	506.5625
0.448614	503.438
0.487836	501.875
0.487836	501.875
0.468222	503.438
0.509386	506.5625
0.548608	505
0.548608	505
0.527039	505
0.572125	508.125
0.587817	506.5625
0.605458	508.125
0.648602	506.5625
0.648602	506.5625
0.623118	505
0.689772	508.125
0.666261	503.438
0.705458	508.125
0.723105	508.125
0.744674	508.125
0.764276	509.688
0.779962	509.688
0.797609	509.688
0.821145	508.125
0.842713	508.125
0.868203	508.125
0.879968	508.125
0.919172	511.25

File: ja406844r-si_page_12_PCN-225(Zn)_des.txt
# Relative Pressure (p/p0)    Quantity Adsorbed
0.948589	 509.688
0.930942	509.688
0.903491	509.688
0.8936875	509.688
0.866237	509.688
0.848589	509.688
0.827027	508.125
0.807419	508.125
0.78585	508.125
0.770158	509.688
0.746635	508.125
0.746635	508.125
0.727027	508.125
0.727027	508.125
0.70938	508.125
0.687805	509.688
0.666243	508.125
0.646641	506.5625
0.625072	506.5625
0.603498	508.125
0.587811	508.125
0.56821	506.5625
0.548602	506.5625
0.527033	506.5625
0.507425	506.5625
0.489778	506.5625
0.46821	506.5625
0.446647	505
0.425085	503.438
0.409398	503.438
0.385869	503.438
0.362346	501.875
0.344699	501.875
0.327051	501.875
0.303528	500.3125
0.28392	500.3125
0.266273	500.3125
0.246665	500.3125
0.22707	497.188
0.205501	497.188
0.1859	495.625
0.166298	494.0625
0.148657	492.5
0.1271	489.375
0.10946	487.8125
0.0879093	483.125
0.0683137	480
0.0487243	475.3125

File: ja406844r-si_page_12_PCN-225_ads.txt
# Relative Pressure (p/p0)    Quantity Adsorbed
-0.00243382	 20.625
-0.0064473	44.0625
-0.00264216	73.75
-0.00271569	92.5
-0.00271569	92.5
-0.00277696	108.125
-0.002875	133.125
-0.00293015	147.188
-0.00497672	169.0625
-0.00503799	184.688
-0.00122059	211.25
-0.00130025	231.563
-0.00134314	242.5
-0.00139216	255.0
0.000488971	275.313
0.000397059	298.75
0.000335784	314.375
0.000329657	315.938
0.000286765	326.875
-0.00371446	347.188
4.16667e-05	389.375
4.16667e-05	389.375
0.00188603	419.0625
0.00188603	419.0625
0.00575858	431.5625
0.0135833	436.25
0.0272904	440.938
0.0331605	444.0625
0.040973	451.875
0.0586201	451.875
0.0821311	456.5625
0.101727	459.688
0.127192	465.938
0.17033	465.938
0.17033	465.938
0.205599	472.188
0.205599	472.188
0.229129	472.188
0.264411	475.3125
0.264411	475.3125
0.293822	475.3125
0.325183	478.438
0.325183	478.438
0.348712	478.438
0.364392	480
0.387915	481.5625
0.411445	481.5625
0.421249	481.5625
0.444778	481.5625
0.460464	481.5625
0.480066	483.125
0.507523	481.5625
0.525164	483.125
0.548681	486.25
0.57025	486.25
0.583975	486.25
0.60946	487.8125
0.631028	487.8125
0.654558	487.8125
0.68593	487.8125
0.705532	489.375
0.744754	487.8125
0.725134	490.938
0.768277	489.375
0.809453	489.375
0.809453	489.375
0.782002	489.375
0.827088	492.5
0.84082	490.938
0.864349	490.938
0.883957	490.938
0.899643	490.938
0.923167	492.5

File: ja406844r-si_page_12_PCN-225_des.txt
# Relative Pressure (p/p0)    Quantity Adsorbed
0.94669	 494.0625
0.927082	494.0625
0.903547	495.625
0.887866	494.0625
0.868259	494.0625
0.848657	492.5
0.829055	490.938
0.803571	489.375
0.785924	489.375
0.768277	489.375
0.748669	489.375
0.729061	489.375
0.705532	489.375
0.687885	489.375
0.670238	489.375
0.644748	489.375
0.629061	489.375
0.605544	486.25
0.587897	486.25
0.568289	486.25
0.546721	486.25
0.527113	486.25
0.505544	486.25
0.487903	484.688
0.470256	484.688
0.446727	484.688
0.42908	484.688
0.405562	481.5625
0.385949	483.125
0.364392	480
0.342824	480
0.342824	480
0.323216	480
0.307523	481.5625
0.307523	481.5625
0.28794	475.3125
0.266359	478.438
0.246757	476.875
0.22715	476.875
0.207548	475.3125
0.18794	475.3125
0.168344	472.188
0.148737	472.188
0.12718	469.0625
0.107578	467.5
0.0899436	464.375
0.0683934	459.688
0.0468431	455

File: ja500330a-si_page_46_MOF-801-P_ads.txt
# Relative Pressure (p/p0)    Quantity Adsorbed
-0.00268097	 64.7059
0.0	129.412
0.0	138.235
0.0	150
0.0	161.765
0.0	175
0.0	36.7647
0.0	11.7647
0.0268097	223.529
0.0268097	223.529
0.0107239	207.353
0.0536193	235.294
0.0536193	235.294
0.0670241	235.294
0.10992	245.588
0.126005	248.529
0.168901	254.412
0.206434	255.882
0.252011	261.765
0.302949	264.706
0.351206	270.588
0.402145	273.529
0.426273	276.471
0.450402	275
0.504021	280.882
0.557641	285.294
0.608579	283.824
0.654155	286.765
0.707775	285.294
0.758713	288.235
0.809651	291.176
0.855228	288.235
0.908847	291.176
0.954424	292.647
0.994638	302.941

File: ja500330a-si_page_46_MOF-801-P_des.txt
# Relative Pressure (p/p0)    Quantity Adsorbed
0.892761	 292.647
0.798928	289.706
0.699732	289.706
0.597855	285.294
0.49866	285.294
0.466488	282.353
0.44504	280.882
0.423592	276.471
0.396783	273.529
0.292225	266.176
0.198391	257.353
0.147453	250
0.0911528	241.176
0.0428954	229.412

File: ja500330a-si_page_46_MOF-801-SC_ads.txt
# Relative Pressure (p/p0)    Quantity Adsorbed
0.993182	 187.695
0.95	183.801
0.906818	182.243
0.856818	182.243
0.804545	182.243
0.756818	182.243
0.702273	181.464
0.654545	180.685
0.602273	179.128
0.556818	179.128
0.504545	179.128
0.45	177.57
0.4	176.791
0.354545	176.012
0.302273	176.012
0.247727	174.455
0.195455	173.676
0.156818	172.118
0.0909091	171.34
0.0818182	169.782
0.0545455	166.667
0.0659091	168.224
0.0386364	164.33
0.0318182	161.994
0.0159091	157.321
0.00681818	150.312
0.00681818	144.081
0.00681818	139.408
0.00681818	133.178
-0.00227273	122.274
-0.00227273	128.505
-0.00227273	118.38
-0.00227273	111.371
-0.00227273	102.025
0.0	92.6791
0.00454545	83.3333
0.00454545	71.6511
0.00454545	63.8629
0.0	49.8442
-0.00227273	27.2586

File: ja500330a-si_page_46_MOF-801-SC_des.txt
# Relative Pressure (p/p0)    Quantity Adsorbed
0.904372	 182.997
0.795082	181.036
0.691257	180.94
0.590164	179.917
0.497268	178.901
0.396175	176.019
0.297814	174.998
0.196721	173.045
0.103825	167.383
0.0464481	163.612
0.010929	152.427

File: ja500330a-si_page_47_DUT-67_ads.txt
# Relative Pressure (p/p0)    Quantity Adsorbed
0.995008	 404.313
0.956277	402.71
0.897044	401.076
0.860583	397.933
0.801357	397.842
0.758076	397.775
0.703406	397.69
0.653285	396.07
0.607727	396
0.55532	392.832
0.512033	391.222
0.457356	389.595
0.407242	389.517
0.357106	384.81
0.304707	383.186
0.250023	380.015
0.202172	376.855
0.158878	373.702
0.0973459	367.434
0.0859493	365.873
0.0745456	362.769
0.060857	358.119
0.0380216	345.738
0.0288888	341.094
0.0196787	319.475
0.0126903	285.513
0.0126762	282.427
0.0103772	277.794
0.010342	270.078
0.0103209	265.448
0.0102999	260.818
0.0102717	254.645
0.00567371	245.379
0.00563856	237.663
0.0056034	229.947
0.00555419	219.144
0.00324815	212.968
0.00315675	192.906
0.00314269	189.82
0.00312159	185.19
0.00309347	179.017
0.00306535	172.844
0.00303723	166.671
0.00300207	158.955
0.00293177	143.523
0.00295989	149.696
0.00288958	134.264
0.00287552	131.177
0.000562449	123.458
4.21837e-05	9.25932

File: ja500330a-si_page_47_DUT-67_des.txt
# Relative Pressure (p/p0)    Quantity Adsorbed
0.88566	 402.351
0.785419	399.402
0.692018	397.994
0.598611	395.033
0.498369	392.083
0.46875	390.576
0.445964	389.059
0.423192	390.647
0.395857	390.69
0.284205	383.099
0.188513	378.589
0.0973479	367.861
0.0494415	352.408
0.0104486	293.462

File: ja500330a-si_page_47_MOF-802_ads.txt
# Relative Pressure (p/p0)    Quantity Adsorbed
0.0653139	 3.90909
0.101082	4.27273
0.152449	4.45455
0.201542	4.36364
0.255154	4.63636
0.308712	4.54545
0.353396	4.81818
0.404721	4.72727
0.500717	4.81818
0.601204	5.09091
0.706101	5.0
0.799851	5.0
0.902611	5.54545
0.996618	7.27273

File: ja500330a-si_page_47_MOF-802_des.txt
# Relative Pressure (p/p0)    Quantity Adsorbed
0.89145	 5.54545
0.777597	5.45455
0.686066	5.36364
0.585633	5.45455
0.482927	5.27273
0.382481	5.27273
0.284253	5.18182
0.183793	5.09091
0.0833063	4.81818

File: ja500330a-si_page_48_MOF-804_ads.txt
# Relative Pressure (p/p0)    Quantity Adsorbed
-0.00101143	 211.024
-0.00103166	215.223
0.000814205	232.021
0.000814205	232.021
0.00272076	236.22
0.0161324	251.969
0.0218824	258.268
0.0314809	265.617
0.0584103	275.066
0.0757413	277.165
0.0757413	277.165
0.0892237	278.215
0.145085	281.365
0.200947	284.514
0.249106	286.614
0.295344	287.664
0.347362	288.714
0.395521	290.814
0.449476	289.764
0.497636	291.864
0.545805	291.864
0.645988	293.963
0.645988	293.963
0.595902	291.864
0.742317	296.063
0.696084	293.963
0.796277	293.963
0.84829	296.063
0.90223	298.163
0.952316	300.262
0.986968	306.562

File: ja500330a-si_page_48_MOF-804_des.txt
# Relative Pressure (p/p0)    Quantity Adsorbed
0.87525	 299.213
0.776999	296.063
0.692231	293.963
0.588184	293.963
0.489929	291.864
0.389751	288.714
0.287637	287.664
0.197088	285.564
0.102701	280.315
0.0430112	271.916
0.0103824	245.669

File: ja500330a-si_page_48_MOF-805_ads.txt
# Relative Pressure (p/p0)    Quantity Adsorbed
0.994329	 346.253
0.954631	330.749
0.907372	326.615
0.852552	323.514
0.795841	321.447
0.748582	319.38
0.699433	319.38
0.650284	317.313
0.610586	317.313
0.548204	317.313
0.500945	315.245
0.459357	315.245
0.395085	314.212
0.359168	313.178
0.294896	310.078
0.255198	309.044
0.21172	306.977
0.15879	306.977
0.100189	301.809
0.0793951	297.674
0.0642722	296.641
0.0321361	290.439
0.0245747	287.339
0.00756144	270.801
0.00756144	263.566
0.00378072	256.331
0.00378072	243.928
0.00378072	227.39
0.00189036	216.021
-0.00189036	204.651
0.00189036	193.282
0.00189036	176.744
0.00189036	155.039
0.00189036	52.7132

File: ja500330a-si_page_48_MOF-805_des.txt
# Relative Pressure (p/p0)    Quantity Adsorbed
0.869757	 325.52
0.773012	322.511
0.678154	320.537
0.678154	320.537
0.577603	318.568
0.473267	315.568
0.47896	315.562
0.439111	315.603
0.40876	314.598
0.382214	312.553
0.279746	312.66
0.181113	308.617
0.0863239	299.388
0.0370563	292.186
0.00683315	277.709

File: ja500330a-si_page_49_MOF-806_ads.txt
# Relative Pressure (p/p0)    Quantity Adsorbed
-0.00227273	 93.1938
0.0	123.529
0.0	175.542
0.0	190.712
-0.00454545	338.09
0.0	357.585
0.0	407.43
0.00227273	426.93
0.00681818	452.926
0.00681818	452.926
0.00681818	465.929
0.00681818	483.267
0.0159091	500.585
0.0318182	517.888
0.0613636	528.66
0.0613636	528.66
0.147727	541.476
0.209091	541.343
0.209091	541.343
0.311364	547.622
0.256818	541.239
0.347727	541.042
0.404545	545.253
0.447727	547.327
0.545455	544.948
0.545455	544.948
0.652273	546.884
0.652273	546.884
0.6	546.997
0.702273	546.775
0.75	553.173
0.85	548.622
0.95	554.907
0.95	554.907
0.984091	559.168

File: ja500330a-si_page_49_MOF-806_des.txt
# Relative Pressure (p/p0)    Quantity Adsorbed
0.897727	 550.686
0.788636	546.588
0.693182	551.129
0.595455	544.84
0.470455	545.11
0.493182	547.228
0.493182	547.228
0.415909	543.061
0.415909	543.061
0.295455	545.49
0.295455	545.49
0.2	541.362
0.0522727	524.345
0.0863636	530.773
0.0863636	530.773
0.0113636	494.093

File: ja500330a-si_page_49_MOF-808_ads.txt
# Relative Pressure (p/p0)    Quantity Adsorbed
0.997721	 558.278
0.954798	555.706
0.902855	555.553
0.850898	552.954
0.80573	552.822
0.753801	555.116
0.70183	550.07
0.656634	545.044
0.604691	544.892
0.552748	544.739
0.496288	544.574
0.448848	541.988
0.396878	536.942
0.363002	536.843
0.259074	529.198
0.299739	531.764
0.198056	521.68
0.177731	521.62
0.159636	516.674
0.139297	514.168
0.125719	509.235
0.100862	506.716
0.0623593	487.031
0.0623593	487.031
0.046371	455.179
0.0345541	362.178
0.0274474	303.442
0.0181928	264.271
0.00440767	222.64
0.00661081	212.861
-0.0003025	188.376
-0.0003025	188.376
-0.0050541	146.772
-0.0050541	146.772
-0.00524748	112.52
-0.00528892	105.181

File: ja500330a-si_page_49_MOF-808_des.txt
# Relative Pressure (p/p0)    Quantity Adsorbed
0.00963575	 235.583
0.0529038	473.62
0.0955803	500.613
0.0955803	500.613
0.0776294	495.706
0.153918	515.337
0.153918	515.337
0.133731	512.883
0.297463	532.515
0.203266	522.699
0.393897	539.877
0.41856	539.877
0.440982	539.877
0.472379	542.331
0.494807	544.785
0.595711	547.239
0.69213	549.693
0.786321	557.055
0.88272	552.147

File: ja500330a-si_page_50_MOF-841_ads.txt
# Relative Pressure (p/p0)    Quantity Adsorbed
0.00296997	 46.4739
0.000323262	59.4802
0.00318211	85.5078
0.000596014	109.667
0.000596014	109.667
0.000666727	122.678
0.000717237	131.972
0.000777848	143.124
0.00083846	154.277
0.000858664	157.994
0.000919275	169.147
0.000969785	178.44
-0.00167692	191.447
-0.0015456	215.611
-0.00150519	223.046
0.00130315	239.779
0.00132335	243.497
0.0068289	256.518
0.00147488	271.378
0.00699053	286.258
0.0015961	293.683
0.00439434	308.558
0.00439434	308.558
0.0207393	316.024
0.0289319	323.474
0.0561667	334.677
0.0561667	334.677
0.0697639	336.561
0.0697639	336.561
0.145882	342.279
0.145882	342.279
0.249184	349.906
0.249184	349.906
0.21114	349.835
0.30624	348.153
0.347032	353.805
0.453041	359.578
0.406835	357.634
0.406835	357.634
0.50739	359.679
0.550858	357.901
0.605227	361.72
0.659585	363.68
0.711216	363.775
0.757402	362.003
0.860694	367.771
0.803608	363.947
0.803608	363.947
0.909598	366.003
0.950359	366.079
0.991171	375.448

File: ja500330a-si_page_50_MOF-841_des.txt
# Relative Pressure (p/p0)    Quantity Adsorbed
0.787294	 362.058
0.787294	362.058
0.893303	367.831
0.703064	363.76
0.586195	359.826
0.586195	359.826
0.493802	359.654
0.39052	355.744
0.298108	351.855
0.20024	344.238
0.102373	336.622
0.0479943	330.944

File: ja500330a-si_page_50_UiO-66_ads.txt
# Relative Pressure (p/p0)    Quantity Adsorbed
-0.00322843	 172.419
0.00383056	261.747
0.00205816	216.282
-0.0016887	205.267
-0.00122793	199.464
-0.0017709	193.299
-0.00181199	187.316
-0.00185309	181.332
0.00551802	252.326
0.00509182	244.939
0.00505148	239.064
0.00494052	222.909
0.00650411	231.898
0.00949626	273.09
0.0134979	281.796
0.0102321	264.467
0.0227596	290.509
0.0262937	294.838
0.0340981	297.316
0.0470341	301.852
0.069085	305.289
0.0801101	306.97
0.091129	307.736
0.102141	307.563
0.112538	312.435
0.123176	308.824
0.13422	313.275
0.145928	313.381
0.156247	313.176
0.167238	309.838
0.175255	310.867
0.189753	315.268
0.200288	311.198
0.210678	314.735
0.21466	314.33
0.235777	315.372
0.246371	315.055
0.256857	315.327
0.25236	312.335
0.268406	316.143
0.279838	316.256
0.301468	319.204
0.313465	316.613
0.324479	316.687
0.335493	316.687
0.346953	316.075
0.357523	317.192
0.368537	317.206
0.379551	317.256
0.391019	317.827
0.412423	316.899
0.449611	313.399
0.460891	315.712
0.471648	314.783
0.482674	316.539
0.494369	314.825
0.502727	320.668
0.505385	315.181
0.515311	318.517
0.526745	319.026
0.537758	318.898
0.559954	319.216
0.570803	319.407
0.582486	319.686
0.604237	315.962
0.614162	319.18
0.625876	320.132
0.636889	320.099
0.648127	318.008
0.658917	320.198
0.657883	315.448
0.66993	320.099
0.681613	320.33
0.691931	316.267
0.703362	316.347
0.713285	319.132
0.724996	319.769
0.736009	319.769
0.747465	318.536
0.757789	318.461
0.76975	320.702
0.780046	317.206
0.79123	317.639
0.802087	319.11
0.812246	319.667
0.824126	320.869
0.835139	320.849
0.846776	319.464
0.857288	320.257
0.855736	316.687
0.86818	320.742
0.879328	320.912
0.890607	318.296
0.898526	322.009
0.905996	319.482
0.915702	321.08
0.914813	317.231
0.927257	321.335
0.938686	321.152
0.949278	320.507
0.959409	320.607
0.971316	322.077
0.982331	322.151
0.993581	321.868
1.00387	323.65
1.00283	319.101

File: ja500330a-si_page_50_UiO-66_des.txt
# Relative Pressure (p/p0)    Quantity Adsorbed
0.885559	 321.981
0.776567	322.145
0.686649	322.28
0.588556	322.427
0.487738	322.579
0.474114	321.096
0.446866	321.137
0.446866	321.137
0.425068	321.169
0.395095	318.207
0.294278	318.359
0.19891	316.998
0.119891	315.613
0.119891	315.613
0.171662	315.535
0.103542	312.63
0.0463215	309.709
0.0762943	312.671
0.0762943	312.671
0.0108992	288.71

File: ja500330a-si_page_51_PIZOF-2_ads.txt
# Relative Pressure (p/p0)    Quantity Adsorbed
0.0493364	 450.241
0.0678968	517.105
0.116205	537.569
0.137711	537.513
0.194114	550.236
0.24517	555.251
0.290869	555.134
0.403714	570.285
0.497801	570.042
0.599933	574.927
0.699386	577.244
0.79883	582.135
0.892927	579.32
0.981538	604.827

File: ja500330a-si_page_51_PIZOF-2_des.txt
# Relative Pressure (p/p0)    Quantity Adsorbed
0.952008	 594.609
0.844519	584.591
0.737021	577.147
0.640256	574.823
0.538114	572.512
0.449423	567.593
0.355376	557.541
0.204876	547.634
0.0974373	524.749

File: ja506357n-si_page_13_1_ads.txt
# Relative Pressure (p/p0)    Quantity Adsorbed
-0.00178253	 -0.0247467
0.0115865	0.000912008
0.0271836	0.039332
0.0427807	0.0522975
0.0539216	0.116104
0.0762032	0.167353
0.0895722	0.167558
0.107398	0.218739
0.120766	0.244398
0.134135	0.282784
0.147504	0.32117
0.169786	0.359692
0.185383	0.410839
0.205437	0.462054
0.214349	0.500372
0.229947	0.513338
0.247772	0.551792
0.261141	0.577451
0.27451	0.615837
0.290107	0.666984
0.303476	0.70537
0.339127	0.795005
0.374777	0.833732
0.397059	0.884981
0.430481	0.961855
0.461676	1.00051
0.486185	1.06452
0.521836	1.11598
0.550802	1.20551
0.579768	1.29504
0.613191	1.38465
0.639929	1.41051
0.673351	1.51284
0.695633	1.56409
0.729055	1.65369
0.762478	1.73056
0.789216	1.78188
0.82041	1.92236
0.84492	2.03728
0.88057	2.20327
0.911765	2.43284
0.922906	2.58574
0.927362	2.76399
0.940731	2.98056
0.947415	3.13339
0.958556	3.42628
0.967469	3.68097

File: ja506357n-si_page_13_1_des.txt
# Relative Pressure (p/p0)    Quantity Adsorbed
0.985294	 4.29215
0.951872	3.23527
0.922906	2.67483
0.889483	2.2925
0.829323	2.02431
0.804813	1.92212
0.77139	1.80706
0.73574	1.71743
0.709002	1.64065
0.673351	1.56375
0.642157	1.51236
0.608734	1.41003
0.579768	1.37141
0.548574	1.26911
0.512923	1.23039
0.477273	1.1153
0.448307	1.05122
0.417112	0.999833
0.385918	0.948447
0.350267	0.871539
0.316845	0.832847
0.287879	0.717859
0.270053	0.679405
0.254456	0.640985
0.245544	0.615394
0.223262	0.589599
0.205437	0.5766
0.192068	0.538214
0.172014	0.461544
0.156417	0.448579
0.145276	0.410227
0.125223	0.384466
0.107398	0.346012
0.0918004	0.320319

File: ja507119n-si_page_14_MOF-808-0.65SO4_ads.txt
# Relative Pressure (p/p0)    Quantity Adsorbed
0.955614	 566.886
0.906005	562.031
0.855091	561.12
0.802872	559.345
0.759356	553.13
0.659269	556.103
0.659269	556.103
0.598346	554.397
0.502611	550.779
0.502611	550.779
0.454743	548.969
0.402524	545.009
0.354656	541.014
0.300261	541.442
0.250218	535.278
0.197998	529.132
0.154482	522.917
0.0913838	510.299
0.078329	506.03
0.06745	499.558
0.0456919	370.767
0.0456919	370.767
0.0522193	477.82
0.0369887	316.191
0.0261097	279.118
0.0130548	248.62
0.00435161	207.158
0.00435161	200.601
1.11022e-16	187.52
1.11022e-16	172.22
1.11022e-16	148.176
-0.00217581	130.707
-0.00217581	121.964
-0.00217581	111.035
-0.00217581	100.106
-0.00217581	89.1769
-0.00217581	65.1332

File: ja507119n-si_page_14_MOF-808-0.65SO4_des.txt
# Relative Pressure (p/p0)    Quantity Adsorbed
0.993478	 611.516
0.878261	565.742
0.784783	563.755
0.7	559.557
0.6	555.392
0.495652	549.046
0.473913	549.094
0.443478	546.968
0.426087	547.007
0.397826	547.068
0.284783	540.741
0.184783	532.193
0.1	508.269
0.0478261	462.356
0.00652174	223.543

File: ja507119n-si_page_14_MOF-808-P_ads.txt
# Relative Pressure (p/p0)    Quantity Adsorbed
0.962025	 594.326
0.913502	588.166
0.805907	588.622
0.805907	588.622
0.862869	586.258
0.746835	580.385
0.700422	580.582
0.662447	580.743
0.599156	578.89
0.559072	579.06
0.506329	577.161
0.478903	577.278
0.459916	575.236
0.405063	573.347
0.35654	571.431
0.308017	567.393
0.253165	561.26
0.202532	555.109
0.160338	548.922
0.0991561	534.327
0.0843882	530.146
0.07173	521.711
0.0611814	502.658
0.0464135	400.864
0.035865	326.638
0.0253165	279.999
0.0147679	248.213
0.00843882	218.532
0.00632911	212.175
0.00421941	201.574
-0.0021097	188.868
0.0	176.127
0.0	159.151
-0.0021097	148.55
-0.0021097	133.696
-0.0021097	127.33
-0.0021097	112.476
-0.0021097	93.3777
-0.0021097	70.0355
-0.0021097	61.5474
-0.0021097	53.0594
-0.0021097	40.3273
-0.00421941	21.2381
-0.00421941	8.50597

File: ja507119n-si_page_14_MOF-808-P_des.txt
# Relative Pressure (p/p0)    Quantity Adsorbed
0.993671	 600.557
0.877637	588.318
0.770042	584.53
0.679325	580.671
0.582278	576.839
0.483122	575.138
0.474684	573.052
0.440928	571.073
0.413502	571.189
0.390295	571.288
0.28692	563.239
0.191983	557.275
0.092827	532.232
0.0485232	485.736
0.00843882	224.898