Folder: Experimental-Data-Digitalization/data/nitrogen-adsorption-isotherms

Note: README.md
# Digitalize PDF papers
Retrieval Augmented Generation with Langchain

File: 10.1039_c5cc09935h_page_3_Li+@Zn-MOF-Crown_ads.txt
# Relative Pressure (p/p0)    Quantity Adsorbed
0.0100826	 122.219
0.00860037	74.9535
0.00888542	59.2394
0.0198956	202.724
0.0144439	191.224
0.0117929	180.222
0.00974057	173.859
0.0105957	106.852
0.0114509	164.377
0.0114509	155.376
0.0114509	145.417
0.0114509	135.937
0.0360254	208.643
0.058118	212.022
0.0709317	219.919
0.0884149	222.639
0.107941	223.158
0.126042	227.488
0.144257	231.581
0.165135	230.127
0.181402	233.167
0.220109	236.806
0.238922	239.275
0.257223	237.257
0.276549	240.694
0.314176	243.767
0.332745	244.891
0.351803	248.365
0.371386	246.738
0.389109	248.989
0.408756	248.17
0.42665	250.056
0.44664	253.934
0.465254	253.068
0.482927	254.287
0.540044	257.968
0.559321	256.858
0.576484	258.961
0.597062	262.442
0.615731	261.353
0.633502	262.934
0.652438	266.398
0.656239	263.802
0.674692	264.021
0.694635	267.989
0.713	268.242
0.730542	268.298
0.749536	271.819
0.770628	271.023
0.788574	273.605
0.805036	278.953
0.803896	272.329
0.825199	275.271
0.845143	280.126
0.863756	280.506
0.881837	283.367
0.901882	287.11
0.928178	289.808
0.951553	302.617
0.977207	326.389
0.984619	355.368

File: 10.1039_c5cc09935h_page_3_Li+@Zn-MOF-Crown_des.txt
# Relative Pressure (p/p0)    Quantity Adsorbed
0.986631	 358.272
0.946673	316.896
0.902109	290.758
0.851976	283.341
0.799985	275.926
0.747995	274.125
0.697861	270.45
0.649584	269.579
0.59945	265.904
0.549317	263.165
0.50104	259.487
0.450906	257.683
0.400772	253.073
0.354352	250.329
0.300505	248.53
0.252228	243.917
0.202094	239.306
0.153818	237.5
0.0999703	230.087
0.0516934	221.732
0.00898693	204.948

File: 10.1039_c5cc09935h_page_3_Zn-MOF-Crown_ads.txt
# Relative Pressure (p/p0)    Quantity Adsorbed
-0.000219479	 85.8918
-0.000676782	74.3024
0.000333857	63.129
0.00261427	103.631
0.0540187	260.998
0.0919133	276.517
0.0984868	269.64
0.111599	275.604
0.129462	277.272
0.148703	278.973
0.167089	281.922
0.203617	285.421
0.22353	287.291
0.274839	296.033
0.293652	292.564
0.312893	295.886
0.330139	297.237
0.354491	296.296
0.374807	301.133
0.392946	305.404
0.395587	296.751
0.412198	307.35
0.410239	300.868
0.430477	305.745
0.449561	307.948
0.465368	303.595
0.469244	309.717
0.486592	308.826
0.505731	306.89
0.524545	309.764
0.542028	311.59
0.563768	311.351
0.580985	313.23
0.618612	314.946
0.636827	316.313
0.656951	315.094
0.675052	317.357
0.694369	320.19
0.710398	324.019
0.713863	318.424
0.731065	321.521
0.750306	324.396
0.769445	323.636
0.787743	326.078
0.807088	325.111
0.82556	328.292
0.844278	331.148
0.865263	331.927
0.882	336.082
0.900813	341.026
0.919627	345.372
0.93921	354.112
0.930744	343.473
0.952294	351.286
0.969995	375.479
0.977155	390.031
0.979488	399.664
0.00155971	182.503
0.00155971	169.404
-0.0040107	136.665
-0.00215389	146.954
0.00155971	225.542
-0.00215389	194.671
0.00155971	201.216
0.00155971	201.216

File: 10.1039_c5cc09935h_page_3_Zn-MOF-Crown_des.txt
# Relative Pressure (p/p0)    Quantity Adsorbed
0.981952	 400.119
0.946673	364.613
0.896539	343.161
0.846405	336.679
0.799985	332.999
0.744281	325.589
0.694147	325.657
0.642157	323.855
0.605021	319.227
0.549317	320.238
0.502897	315.622
0.450906	312.886
0.402629	311.079
0.348782	309.281
0.300505	302.796
0.255942	300.049
0.200238	295.446
0.150104	292.707
0.0999703	286.225
0.0516934	271.32
0.00713012	247.054
0.00527332	233.958

File: acs.cgd.6b01265-si_page_10_NJU-Bai30_ads.txt
# Relative Pressure (p/p0)    Quantity Adsorbed
-0.00117569	 15.0618
-0.00289782	29.486
-0.00297178	45.0168
-0.00303517	58.3289
0.00184595	74.9612
-0.00317251	87.1719
-0.00491577	106.033
-0.00333099	120.452
-0.00341023	137.092
-0.0034789	151.514
-0.00353701	163.717
-0.00360569	178.138
-0.00202619	193.666
-0.00209487	208.088
-0.00216354	222.509
-0.00224278	239.149
-0.00231145	253.571
-0.00238541	269.102
-0.000795347	282.411
-0.00419205	301.275
-0.00426601	316.806
-0.00431884	327.9
-0.00274991	345.647
-0.00281858	360.068
-0.00288197	373.38
-0.00294008	385.583
0.00196745	396.668
0.00851786	409.97
0.0266424	423.253
0.0398384	429.888
0.0844393	438.691
0.0993098	440.886
0.120799	441.961
0.132363	444.162
0.16212	445.223
0.176996	446.309
0.203451	446.267
0.248083	448.414
0.294359	452.778
0.347275	451.584
0.396868	453.723
0.44645	458.081
0.497712	456.89
0.545668	455.704
0.596909	458.95
0.646497	462.199
0.696106	461.01
0.747352	463.147
0.795281	467.508
0.818429	467.471
0.844863	471.866
0.874631	470.709
0.896115	472.894
0.924218	473.958
0.94901	476.137
0.96883	480.543
0.990309	483.837

File: acs.cgd.6b01265-si_page_10_NJU-Bai30_des.txt
# Relative Pressure (p/p0)    Quantity Adsorbed
0.990283	 489.383
0.973774	483.863
0.95724	483.889
0.917594	476.187
0.891139	476.23
0.86303	476.274
0.844842	476.304
0.838234	475.205
0.810125	475.25
0.810125	475.25
0.772101	474.201
0.722508	472.062
0.67292	468.813
0.621674	466.676
0.575372	467.859
0.52412	466.832
0.474543	461.364
0.420016	453.686
0.368759	453.768
0.307587	452.756
0.272875	450.593
0.21998	447.35
0.147239	445.247
0.0893944	439.793
0.0480951	432.094
-0.00466749	401.116
-0.00757291	316.811
-0.00383284	225.84
-0.00339438	133.764
0.00191991	59.4303
-0.00116513	12.8431

File: acs.cgd.6b01265-si_page_10_NJU-Bai31_ads.txt
# Relative Pressure (p/p0)    Quantity Adsorbed
0.999855	 480.831
0.986767	479.499
0.95303	480.831
0.925252	480.831
0.89549	480.831
0.845894	479.499
0.822078	480.831
0.79629	479.499
0.748671	479.499
0.695113	476.837
0.649478	476.837
0.59789	476.837
0.546303	476.837
0.4967	476.837
0.447109	474.175
0.399497	472.843
0.347916	471.512
0.296347	467.519
0.248728	467.519
0.197166	462.194
0.183278	462.194
0.159481	459.531
0.137662	458.2
0.121795	456.869
0.0999759	455.538
0.0821378	451.544
0.0504108	447.551
0.0286297	438.232
0.0108233	427.583
0.00687408	423.589
0.00295654	412.939
0.00301359	400.958
-0.00483417	382.322
0.0012133	362.354
-0.00267889	346.379
-0.000618693	330.405
-0.000536285	313.099
-0.00245068	298.456
-0.00036513	277.157
-0.000270044	257.188
-0.000187636	239.883
-9.88894e-05	221.246
-0.00199427	202.609
-0.00189284	181.31
-0.00179776	161.342
-0.00170267	141.374
0.000363862	124.068
0.000465287	102.769
0.000573051	80.1384
0.000655459	62.8328
-0.0012209	40.2023
-0.00113216	21.5655

File: acs.cgd.6b01265-si_page_10_NJU-Bai31_des.txt
# Relative Pressure (p/p0)    Quantity Adsorbed
0.974155	 482.765
0.942346	481.389
0.942346	481.389
0.916501	481.355
0.884692	482.645
0.862823	479.95
0.831014	479.907
0.813121	481.217
0.7833	481.177
0.729622	481.105
0.673956	479.698
0.630219	478.306
0.576541	478.235
0.524851	478.166
0.477137	475.435
0.423459	472.697
0.375746	469.967
0.322068	469.895
0.276342	468.501
0.224652	464.432
0.153082	459.003
0.0298211	438.839
0.00994036	426.812
-0.00397614	330.794
-0.00198807	238.797
-0.00198807	118.797

File: acs.chemmater.5b03723-si_page_20-UAH-25-Ala-Boc(11)_ads.txt
# Relative Pressure (p/p0)    Quantity Adsorbed
-0.00265957	 4.51128
0.0	84.2105
0.00132979	132.832
0.00132979	150.376
-0.000886525	157.895
0.0035461	205.514
0.0035461	228.07
0.010195	251.88
0.0124113	258.145
0.016844	265.664
0.0212766	273.183
0.0234929	280.702
0.0301418	289.474
0.0478723	320.802
0.0744681	347.118
0.0988475	358.396
0.129876	363.409
0.154255	367.168
0.176418	369.674
0.203014	373.434
0.227394	373.434
0.245124	377.193
0.282801	379.699
0.304965	379.699
0.426862	388.471
0.524379	393.484
0.621897	397.243
0.721631	403.509
0.828014	406.015
0.927748	407.268
0.994238	413.534

File: acs.chemmater.5b03723-si_page_20-UAH-25-Ala-Boc(11)_des.txt
# Relative Pressure (p/p0)    Quantity Adsorbed
0.00576241	 233.083
0.010195	241.855
0.010195	265.664
0.0146277	271.93
0.0190603	278.195
0.0190603	283.208
0.0212766	289.474
0.0257092	293.233
0.129876	364.662
0.20523	377.193
0.327128	384.712
0.429078	389.724
0.522163	395.99
0.628546	399.749
0.723848	402.256
0.816933	407.268
0.912234	409.774
0.99867	413.534

File: acs.chemmater.5b03723-si_page_23_UHM-25-Val-Boc(12)_ads.txt
# Relative Pressure (p/p0)    Quantity Adsorbed
0.00132626	 5.38311
-0.000884173	114.63
0.00132626	188.215
0.00132626	208.282
0.00353669	304.163
0.00353669	328.689
0.0123784	355.468
0.0123784	375.535
0.0145889	388.919
0.0212202	404.544
0.0477454	480.424
0.0698497	545.143
0.091954	609.862
0.12069	632.235
0.145004	638.989
0.17595	645.761
0.195844	648.044
0.229001	652.592
0.244474	652.633
0.270999	659.393
0.295314	666.147
0.317418	666.207
0.425729	673.185
0.516357	680.117
0.615827	687.072
0.73298	685.156
0.830239	689.875
0.923077	699.042

File: acs.chemmater.5b03723-si_page_23_UHM-25-Val-Boc(12)_des.txt
# Relative Pressure (p/p0)    Quantity Adsorbed
0.00353669	 255.11
0.00353669	313.081
0.00795756	342.079
0.010168	366.611
0.0153257	402.671
0.0171677	410.108
0.0208518	423.124
0.0208518	434.272
0.0263778	449.151
0.0282199	460.305
0.116637	638.913
0.217949	661.481
0.330312	671.072
0.41873	676.883
0.499779	680.816
0.623195	686.72
0.71898	692.55
0.790819	694.601
0.917919	696.799
0.998968	697.016

File: acs.chemmater.5b03723-si_page_25_UHM-25-Leu-Boc (13)_ads.txt
# Relative Pressure (p/p0)    Quantity Adsorbed
0.995575	 538
0.922566	531.174
0.827434	520.958
0.721239	510.725
0.626106	500.509
0.524336	488.607
0.420354	476.701
0.329646	463.141
0.298673	458.061
0.276549	456.348
0.256637	451.287
0.225664	446.207
0.196903	442.807
0.176991	437.745
0.150442	434.349
0.130531	429.288
0.0973451	422.528
0.0730088	410.755
0.0442478	388.92
0.0287611	353.698
0.0243363	348.663
0.0199115	340.275
0.0199115	331.895
0.0154867	323.508
0.0132743	313.449
0.0110619	303.389
0.00663717	274.89
0.00663717	264.834
0.00442478	196.115
0.00221239	186.056
0.00221239	177.676
0.0	157.56
0.0	142.477
0.00221239	115.665
0.00221239	90.525
0.0	1.69452

File: acs.chemmater.5b03723-si_page_25_UHM-25-Leu-Boc (13)_des.txt
# Relative Pressure (p/p0)    Quantity Adsorbed
0.913737	 516.833
0.919374	486.72
0.786697	500.417
0.711223	487.221
0.621	477.405
0.52525	467.602
0.425848	449.446
0.317229	432.986
0.223346	416.489
0.123962	393.317
0.0211526	299.919
0.0211834	291.558

File: acs.chemmater.5b03723-si_page_27_UHM-25-Ala(14)_ads.txt
# Relative Pressure (p/p0)    Quantity Adsorbed
0.00617284	 0.9765625
0.00396825	6.83594
0.00617284	104.492
0.00617284	129.883
0.00396825	143.555
0.00396825	149.414
0.00617284	182.617
0.00837743	200.195
0.0458554	231.445
0.0767196	237.305
0.0987654	240.234
0.12522	243.164
0.149471	246.094
0.167108	246.094
0.195767	250
0.228836	252.93
0.253086	253.906
0.270723	254.883
0.301587	254.883
0.321429	257.813
0.425044	262.695
0.519841	265.625
0.625661	269.531
0.718254	274.414
0.824074	276.367
0.921076	282.227
0.989418	287.109
0.0127866	207.031
0.0149912	212.891
0.0194004	218.75
0.0238095	222.656

File: acs.chemmater.5b03723-si_page_27_UHM-25-Ala(14)_des.txt
# Relative Pressure (p/p0)    Quantity Adsorbed
0.00139624	 124.674
0.00323339	136.882
0.00323339	146.647
0.00323339	152.344
0.00507055	157.227
0.0069077	192.22
0.010582	203.613
0.0124192	210.124
0.0160935	215.007
0.0160935	219.076
0.0160935	221.517
0.0197678	223.145
0.0252792	227.214
0.0289536	229.655
0.12816	249.186
0.221855	255.697
0.324735	262.207
0.425779	265.462
0.523148	269.531
0.61868	273.6
0.721561	276.042
0.820767	280.111
0.918136	284.18

File: acs.chemmater.5b03723-si_page_29_UHM-25-Val(15)_ads.txt
# Relative Pressure (p/p0)    Quantity Adsorbed
-0.000796178	 -1.12007
-0.000796178	3.36022
-0.000796178	128.808
-0.000796178	170.251
-0.000796178	196.013
0.00141543	247.536
0.00362703	263.217
0.00362703	274.418
0.00583864	283.378
0.0146851	287.858
0.0235315	292.339
0.0522824	308.02
0.0721868	312.5
0.0987261	318.1
0.120842	322.581
0.149593	325.941
0.171709	325.941
0.20046	330.421
0.220364	332.661
0.249115	336.022
0.271231	336.022
0.291136	337.142
0.32431	339.382
0.423832	346.102
0.518931	348.342
0.622877	351.703
0.717976	357.303
0.817498	360.663
0.921444	362.903

File: acs.chemmater.5b03723-si_page_29_UHM-25-Val(15)_des.txt
# Relative Pressure (p/p0)    Quantity Adsorbed
0.990004	 366.263
0.919232	365.143
0.815287	360.663
0.720188	356.183
0.620665	356.183
0.523355	352.823
0.419409	349.462
0.319887	342.742
0.222576	339.382
0.125265	327.061
0.0213199	301.299
0.0168967	299.059
0.0168967	296.819
0.0168967	291.219
0.0102619	287.858
0.00362703	278.898
0.00362703	271.057
0.00141543	254.256
-0.000796178	203.853
-0.000796178	199.373
-0.000796178	190.412
-0.000796178	173.611
-0.00300778	161.29

File: acs.chemmater.5b03723-si_page_31_UHM-25-Leu(16)_ads.txt
# Relative Pressure (p/p0)    Quantity Adsorbed
-0.000798722	 2.52973
-0.00301739	81.7112
-0.000798722	128.221
-0.00301739	145.814
-0.000798722	154.616
-0.000798722	223.746
0.00141995	248.889
0.00807597	266.498
0.0102946	282.841
0.0435747	318.095
0.0724175	325.689
0.0968229	332.018
0.11901	333.315
0.147852	338.395
0.170039	339.692
0.2011	344.775
0.245474	346.113
0.265442	348.663
0.292066	352.482
0.325346	352.542
0.427405	357.754
0.520589	361.694
0.62043	366.902
0.724707	368.348
0.822329	369.781
0.926606	374.998
0.990948	378.885

File: acs.chemmater.5b03723-si_page_31_UHM-25-Leu(16)_des.txt
# Relative Pressure (p/p0)    Quantity Adsorbed
0.91995	 377.499
0.82011	374.805
0.724707	372.118
0.622648	369.42
0.527245	366.733
0.420749	360.256
0.320909	356.305
0.223287	349.843
0.125666	339.611
0.0258253	310.522
0.0236067	309.261
0.0236067	308.004
0.021388	305.486
0.014732	301.703
0.014732	297.932
0.0125133	294.158
0.0125133	285.359
0.0102946	275.3
0.00141995	261.458
0.00363862	236.324
-0.00301739	167.181
-0.00301739	163.411
-0.00301739	150.841
-0.00301739	135.758
-0.000798722	120.68

File: acs.chemmater.5b03723-si_page_33_UHM-25-Pro(17)_ads.txt
# Relative Pressure (p/p0)    Quantity Adsorbed
0.00132626	 0.487827
0.00132626	35.5538
0.00353669	40.5032
-0.000884173	45.8685
-0.000884173	49.5813
0.00353669	52.4669
0.00353669	54.5296
0.00353669	56.5923
0.00132626	65.2568
0.00574713	70.2051
0.00795756	73.5043
0.00795756	76.8047
0.0123784	77.6276
0.0145889	80.5143
0.0212202	82.1611
0.0455349	87.0996
0.0720601	89.1492
0.0985853	89.9611
0.118479	90.7764
0.145004	92.0009
0.17153	93.2254
0.200265	93.6237
0.22237	94.0253
0.244474	94.4269
0.27542	96.0617
0.295314	96.8769
0.321839	96.8638
0.423519	98.4636
0.522989	98.8269
0.624668	99.1891
0.721927	100.379
0.819187	101.156
0.918656	102.344
0.9916	103.545

File: acs.chemmater.5b03723-si_page_33_UHM-25-Pro(17)_des.txt
# Relative Pressure (p/p0)    Quantity Adsorbed
0.920866	 102.755
0.819187	102.393
0.726348	102.027
0.622458	101.253
0.522989	100.89
0.421309	100.115
0.321839	98.9265
0.22679	98.561
0.1229	96.5498
0.0234306	89.9983
0.0212202	89.1743
0.0212202	88.3493
0.0212202	87.9367
0.0212202	86.6991
0.0167993	85.4637
0.0123784	84.6408
0.0123784	83.4031
0.00574713	80.5186
0.00574713	78.4559
0.00353669	68.9686

File: acs.chemmater.5b03723-si_page_36_UHM-25-Evans(18)_ads.txt
# Relative Pressure (p/p0)    Quantity Adsorbed
0.00265252	 1.54947
0.00265252	93.6249
0.00265252	111.738
-0.00265252	129.835
0.00265252	141.927
0.00265252	164.568
0.00530504	226.463
0.00530504	249.105
0.0106101	261.196
0.0106101	276.29
0.0185676	288.39
0.0238727	294.444
0.0503979	330.75
0.076481	346.93
0.0985853	352.028
0.125111	355.881
0.145004	358.457
0.17374	363.575
0.198055	364.907
0.22237	366.238
0.246684	370.085
0.270999	370.158
0.299735	372.761
0.319629	372.821
0.421309	376.901
0.525199	384.762
0.618037	386.3
0.726348	389.143
0.825818	391.959
0.927498	398.555
0.987179	399.993

File: acs.chemmater.5b03723-si_page_36_UHM-25-Evans(18)_des.txt
# Relative Pressure (p/p0)    Quantity Adsorbed
0.918656	 396.013
0.823607	393.21
0.721927	391.645
0.620248	388.823
0.520778	386.007
0.423519	380.682
0.321839	376.601
0.22679	370.025
0.125111	359.655
0.0278515	309.047
0.0234306	305.26
0.0212202	301.48
0.0167993	293.919
0.0167993	288.888
0.0145889	280.076
0.00795756	266.22
0.00795756	254.899
0.00574713	234.766
0.00132626	188.212
0.00353669	181.929
0.00132626	170.602
0.00132626	159.281
0.00132626	145.445

File: acs.chemmater.5b03723_page_5_UHM-25-Val-Boc_ads.txt
# Relative Pressure (p/p0)    Quantity Adsorbed
0	 9.81733
0.00209205	112.267
-0.00209205	192.734
0.00209205	212.267
0.0041841	307.399
0.00627615	336.677
0.0104603	361.088
0.0146444	383.059
0.0146444	392.816
0.0188285	407.47
0.0460251	478.335
0.0711297	546.75
0.0941423	610.277
0.121339	634.799
0.142259	642.219
0.171548	649.679
0.196653	649.801
0.230126	652.403
0.251046	659.822
0.267782	662.343
0.297071	664.925
0.32636	665.068
0.426778	675.314
0.520921	680.651
0.615063	688.427
0.723849	691.397
0.830544	694.357
0.926778	699.704

File: acs.chemmater.5b03723_page_5_UHM-25-Val-Boc_des.txt
# Relative Pressure (p/p0)    Quantity Adsorbed
0.997908	 702.49
0.914226	699.643
0.786611	696.581
0.719665	696.255
0.621339	690.897
0.5	682.988
0.41841	682.59
0.328452	674.834
0.219665	659.669
0.121339	642.117
0.0292887	466.058
0.0251046	451.403
0.0230126	431.881
0.0146444	405.011
0.00627615	365.946
0.00627615	346.433
0.0041841	314.716
0.00209205	256.169
0.0146444	412.328

File: acs.inorgchem.5b00194_page_3_ZJU-70a_ads.txt
# Relative Pressure (p/p0)    Quantity Adsorbed
0.00977712	 372.844
0.0132319	398.572
0.022761	419.167
0.0382125	424.343
0.0814414	436.435
0.118419	441.655
0.155396	446.875
0.186173	448.653
0.213849	448.71
0.247701	450.494
0.278477	452.272
0.315404	454.063
0.355381	454.145
0.404583	454.246
0.45386	459.492
0.55534	459.701
0.604516	458.087
0.644493	458.169
0.696821	461.706
0.80135	460.207
0.835176	460.276
0.893629	462.111
0.94588	460.504

File: acs.inorgchem.5b00194_page_3_ZJU-70a_des.txt
# Relative Pressure (p/p0)    Quantity Adsorbed
0.981815	 465.079
0.922814	460.682
0.881796	462.044
0.845907	463.414
0.820257	461.938
0.781795	461.872
0.743324	460.374
0.702298	460.304
0.663836	460.237
0.617682	460.158
0.574101	461.515
0.535639	461.449
0.49715	457.087
0.458688	457.021
0.420218	455.523
0.379209	458.317
0.338166	455.382
0.297131	453.88
0.256096	452.378
0.215061	450.875
0.18171	447.954
0.135529	443.579
0.0944851	440.645
0.0585344	431.992
0.014812	410.44

File: acs.inorgchem.5b00535_page_2_UiO-68-alkyne_ads.txt
# Relative Pressure (p/p0)    Quantity Adsorbed
-0.00213675	 69.7026
0.0014245	83.8543
0.0014245	95.9756
0.0014245	112.137
0.00320513	233.354
0.00498575	283.865
0.0174501	465.719
0.0299145	566.766
0.0388177	639.519
0.0530627	681.984
0.0584046	696.141
0.0708689	702.238
0.099359	720.503
0.12963	730.692
0.163462	740.891
0.191952	749.055
0.231125	755.23
0.254274	755.297
0.288105	763.476
0.318376	765.584
0.345085	765.662
0.380698	771.826
0.412749	773.94
0.439459	774.018
0.47151	776.131
0.5	780.254
0.540954	780.373
0.569444	780.456
0.599715	786.605
0.635328	782.668
0.658476	786.776
0.695869	784.864
0.72792	788.998
0.758191	789.086
0.790242	793.22
0.820513	791.288
0.852564	793.401
0.881054	793.484
0.913105	793.577
0.941595	793.66
0.971866	791.728
0.998575	791.806

File: acs.inorgchem.5b00535_page_2_UiO-68-alkyne_des.txt
# Relative Pressure (p/p0)    Quantity Adsorbed
0.996795	 791.8
0.977208	791.743
0.930912	791.609
0.911325	791.552
0.872151	791.438
0.849003	791.371
0.822293	791.293
0.7849	787.144
0.75641	789.081
0.72792	788.998
0.69765	786.89
0.667379	786.802
0.629986	786.693
0.605057	786.62
0.574786	782.492
0.537393	780.363
0.514245	780.296
0.469729	776.126
0.450142	776.069
0.409188	771.909
0.38604	771.842
0.355769	771.754
0.318376	767.605
0.297009	765.522
0.257835	759.348
0.222222	753.184
0.195513	751.086
0.167023	748.983
0.140313	742.844
0.110043	728.615
0.0726496	712.344
0.0566239	694.116
0.0388177	653.66
0.0281339	597.063
0.0174501	496.022

File: acs.inorgchem.5b00535_page_2_UiO-68-triazole-A_ads.txt
# Relative Pressure (p/p0)    Quantity Adsorbed
0.0014245	 134.359
0.0014245	148.501
0.0014245	158.602
0.00320513	174.769
0.00854701	184.885
0.00854701	199.027
0.0121083	213.178
0.0121083	223.279
0.0121083	233.38
0.0192308	255.623
0.0281339	300.094
0.0423789	324.378
0.0584046	332.505
0.0690883	338.597
0.0975783	346.76
0.138533	356.98
0.165242	359.078
0.193732	363.202
0.229345	365.325
0.261396	367.439
0.288105	369.537
0.323718	371.661
0.355769	371.754
0.387821	373.867
0.412749	375.96
0.444801	378.073
0.47151	378.151
0.512464	380.29
0.537393	380.363
0.571225	382.482
0.605057	382.58
0.64245	382.689
0.672721	384.797
0.69943	386.895
0.731481	389.008
0.763533	385.061
0.797365	385.16
0.824074	387.258
0.856125	393.411
0.884615	389.454
0.913105	389.537
0.943376	393.665
0.970085	393.743
0.991453	393.805

File: acs.inorgchem.5b00535_page_2_UiO-68-triazole-A_des.txt
# Relative Pressure (p/p0)    Quantity Adsorbed
0.995014	 395.836
0.977208	395.784
0.934473	393.639
0.914886	393.582
0.873932	391.443
0.852564	391.381
0.809829	387.216
0.788462	389.174
0.743946	389.045
0.724359	388.988
0.690527	390.91
0.665598	386.797
0.624644	386.677
0.606838	386.626
0.562322	382.456
0.542735	382.399
0.503561	384.305
0.480413	384.238
0.441239	376.043
0.382479	373.852
0.352208	369.723
0.320157	369.63
0.295228	373.598
0.257835	369.449
0.224003	369.35
0.202635	365.248
0.165242	361.099
0.134972	354.95
0.106481	352.847
0.0762108	344.678
0.0530627	336.53
0.037037	320.322
0.0281339	300.094
0.0210114	255.628
0.0156695	243.492
0.0138889	231.365
0.0138889	223.285
0.0138889	217.224
0.0138889	205.103
0.0121083	201.057
0.0121083	199.037
0.00854701	186.905
0.00854701	176.804
0.00854701	170.744
0.00676638	168.718
0.00676638	162.658
0.00498575	150.531
-0.00213675	142.43

File: acs.inorgchem.5b00535_page_2_UiO-68-triazole-B_ads.txt
# Relative Pressure (p/p0)    Quantity Adsorbed
0.00320513	 23.2535
0.00676638	77.8093
0.022792	134.422
0.0299145	152.624
0.0566239	183.005
0.12963	205.439
0.1599	207.548
0.193732	209.666
0.293447	224.098
0.320157	220.135
0.355769	220.239
0.378917	224.346
0.419872	224.466
0.453704	224.564
0.482194	228.687
0.510684	228.77
0.546296	228.874
0.580128	226.952
0.606838	231.07
0.638889	229.143
0.674501	227.227
0.702991	231.35
0.733262	233.458
0.767094	233.556
0.793803	233.634
0.859687	231.806
0.886396	233.904
0.920228	234.002
0.948718	234.085
0.977208	234.168
0.995014	232.199

File: acs.inorgchem.5b00535_page_2_UiO-68-triazole-B_des.txt
# Relative Pressure (p/p0)    Quantity Adsorbed
0.996795	 238.265
0.977208	236.188
0.934473	236.064
0.914886	238.027
0.875712	235.893
0.854345	235.831
0.808048	233.676
0.7849	233.608
0.759972	235.556
0.717236	233.411
0.694088	231.324
0.667379	231.246
0.622863	233.137
0.605057	233.085
0.571225	226.926
0.535613	230.863
0.510684	226.75
0.473291	226.641
0.446581	224.543
0.409188	226.455
0.38604	226.387
0.327279	220.156
0.220442	215.805
0.202635	211.712
0.167023	211.609
0.136752	211.521
0.10292	207.382
0.0744302	203.259
0.0548433	189.06
0.0388177	178.913
0.022792	168.765
0.0192308	148.553

File: acs.inorgchem.5b00535_page_2_UiO-68-triazole-C_ads.txt
# Relative Pressure (p/p0)    Quantity Adsorbed
0.00512821	 34.9762
0.00512821	61.158
0.0102564	81.5366
0.0153846	107.733
0.0179487	133.923
0.025641	151.4
0.0333333	165.967
0.0384615	165.982
0.0487179	168.921
0.0615385	171.868
0.0974359	189.427
0.125641	192.418
0.166667	195.446
0.197436	198.445
0.217949	198.504
0.25641	204.434
0.287179	204.524
0.317949	204.614
0.353846	207.627
0.374359	207.687
0.412821	213.617
0.441026	213.699
0.479487	216.72
0.505128	216.794
0.548718	219.83
0.571795	216.988
0.605128	217.085
0.638462	217.182
0.669231	217.272
0.7	217.361
0.733333	217.458
0.769231	217.563
0.789744	220.531
0.820513	223.53
0.851282	223.62
0.879487	223.702
0.905128	229.594
0.935897	226.775
0.979487	223.993
1.00256	229.878

File: acs.inorgchem.5b00535_page_2_UiO-68-triazole-C_des.txt
# Relative Pressure (p/p0)    Quantity Adsorbed
1.00256	 224.06
0.969231	226.872
0.930769	220.942
0.917949	223.814
0.876923	220.785
0.838462	220.673
0.820513	220.621
0.782051	223.418
0.758191	221.409
0.720798	221.301
0.69943	217.198
0.653134	217.063
0.635328	217.012
0.592593	216.887
0.573006	216.83
0.535613	214.701
0.512464	216.654
0.47151	214.515
0.446581	214.442
0.409188	212.313
0.391382	212.261
0.352208	210.127
0.320157	210.034
0.288105	207.921
0.257835	207.833
0.231125	205.735
0.193732	203.606
0.167023	201.508
0.136752	197.379
0.108262	195.276
0.0779915	193.168
0.0530627	185.015
0.037037	178.907
0.0299145	166.766
0.0210114	132.396

File: acs.inorgchem.5b01023_page_2_FIR-28-ht_ads.txt
# Relative Pressure (p/p0)    Quantity Adsorbed
0.0033557	 5.15021
0.00671141	12.8755
0.00671141	20.6009
0.0	36.0515
0.0033557	60.515
0.0033557	64.3777
0.0033557	73.3906
0.00671141	86.2661
0.00671141	96.5665
0.0033557	48.927
0.0100671	110.73
0.0033557	118.455
0.0033557	128.755
0.0033557	146.781
0.00671141	157.082
0.0100671	169.957
0.0100671	178.97
0.0369128	203.433
0.0604027	213.734
0.0838926	218.884
0.104027	218.884
0.127517	218.884
0.147651	222.747
0.167785	224.034
0.197987	226.609
0.244966	230.472
0.302013	233.047
0.348993	235.622
0.40604	235.622
0.449664	238.197
0.503356	242.06
0.553691	242.06
0.607383	244.635
0.647651	244.635
0.701342	245.923
0.751678	248.498
0.798658	252.361
0.828859	252.361
0.85906	254.936
0.885906	254.936
0.909396	254.936
0.936242	254.936
0.966443	257.511

File: acs.inorgchem.5b01023_page_2_FIR-28-ht_des.txt
# Relative Pressure (p/p0)    Quantity Adsorbed
0.979866	 260.086
0.959732	261.373
0.895973	260.086
0.845638	262.661
0.798658	261.373
0.751678	261.373
0.701342	262.661
0.651007	262.661
0.597315	261.373
0.550336	260.086
0.503356	260.086
0.45302	258.798
0.399329	258.798
0.355705	256.223
0.305369	256.223
0.251678	253.648
0.197987	252.361
0.151007	251.073
0.100671	245.923
0.0503356	239.485