Folder: Experimental-Data-Digitalization/data/nitrogen-adsorption-isotherms (part 2)

File: acs.inorgchem.5b02108-si_page_7_MFM-300(Ga1.87Fe0.13)_ads.txt
# Relative Pressure (p/p0)    Quantity Adsorbed
0.901539	 177.467
0.870563	169.231
0.856989	163.564
0.824115	158.424
0.80283	153.793
0.777706	151.227
0.752587	149.177
0.729399	147.126
0.70235	145.077
0.675296	142.512
0.65598	141.491
0.65598	141.491
0.627011	140.474
0.609604	137.388
0.578705	136.373
0.551672	135.871
0.522704	134.854
0.501452	133.318
0.474403	131.269
0.453151	129.733
0.424194	129.748
0.404889	129.758
0.373984	128.226
0.352738	127.206
0.327636	126.703
0.298645	123.623
0.275474	123.119
0.252297	122.1
0.227195	121.597
0.205938	119.545
0.178894	118.012
0.151845	115.963
0.124813	115.461
0.103533	111.346
0.091939	110.32
0.0803505	109.81
0.0706759	107.752
0.0648678	106.208
0.0571459	106.212
0.0494018	104.153
0.0435992	103.124
0.0435992	103.124
0.0377912	101.58
0.0300471	99.5211
0.0164949	95.9178
0.012562	89.2149
0.012562	89.2149
0.00674842	87.1549
0.00672076	84.5761
0.00669864	82.5131
0.00669311	81.9973
0.00665992	78.9028
0.00664332	77.3555
0.00661013	74.261
0.00463539	70.1359
0.00461327	68.0729
0.00262746	62.9163
0.0025998	60.3375
0.00063059	56.7282
0.000602933	54.1494
-0.00134415	52.6032
0.000558681	50.0234
0.00051996	46.4131
0.000503366	44.8658
0.00236195	38.16
0.000414862	36.6137
0.000387205	34.0349
0.000376142	33.0034
0.000348484	30.4247
0.000315295	27.3301
0.000298701	25.7828
-0.00165392	23.7208
0.000243386	20.6253
0.00212963	16.4982
0.00200793	5.15159

File: acs.inorgchem.5b02108-si_page_7_MFM-300(Ga1.87Fe0.13)_des.txt
# Relative Pressure (p/p0)    Quantity Adsorbed
0.87256	 175.419
0.847392	168.727
0.847392	168.727
0.828048	165.127
0.802902	160.498
0.771975	156.903
0.748771	153.305
0.725577	150.738
0.698534	149.205
0.675329	145.607
0.648302	145.621
0.623178	143.055
0.598076	142.552
0.576813	139.984
0.54592	139.484
0.526598	137.947
0.49956	136.929
0.474447	135.395
0.447398	133.346
0.422291	132.327
0.399114	131.308
0.372076	130.29
0.32185	127.222
0.32185	127.222
0.350824	128.754
0.296748	126.719
0.273571	125.699
0.22142	123.147
0.22142	123.147
0.248447	123.133
0.202093	121.094
0.167322	119.049
0.14992	116.479
0.122888	115.977
0.0977636	113.412
0.0726396	110.846
0.045574	107.249
0.0242722	101.071
0.0203836	98.4945
0.00875082	93.8587
0.000984606	89.7366

File: acs.inorgchem.5b02108-si_page_7_MFM-300(Ga2Fe)_ads.txt
# Relative Pressure (p/p0)    Quantity Adsorbed
0.00264405	 64.4636
0.00269937	69.6211
0.00852956	73.2285
0.0201402	75.8013
0.0356284	79.9194
0.0472224	80.9449
0.0626774	81.9684
0.0762019	82.993
0.0877848	82.987
0.10324	84.0106
0.10324	84.0106
0.122561	85.5479
0.147658	85.5349
0.174701	87.0683
0.199803	87.5711
0.199803	87.5711
0.222975	88.0749
0.253868	88.5747
0.27897	89.0775
0.302141	89.5813
0.323377	89.5704
0.352345	90.5869
0.375517	91.0908
0.398699	92.6261
0.42572	92.0964
0.452747	92.0824
0.473999	93.6188
0.499096	93.6058
0.520331	93.5949
0.55316	94.6094
0.576337	95.629
0.597573	95.6181
0.618808	95.6071
0.653563	96.1049
0.676728	96.093
0.703772	97.6263
0.723093	99.1636
0.752062	100.18
0.777147	99.1358
0.825443	102.205
0.825443	102.205
0.85247	102.191
0.798405	101.188
0.873727	104.244
0.927803	106.279
0.927803	106.279
0.900754	104.23
0.949066	108.847
0.97034	112.446
0.993606	121.718

File: acs.inorgchem.5b02108-si_page_7_MFM-300(Ga2Fe)_des.txt
# Relative Pressure (p/p0)    Quantity Adsorbed
0.974262	 118.117
0.949105	112.457
0.922034	108.345
0.904648	107.322
0.867952	105.794
0.848631	104.256
0.823518	102.722
0.800341	101.703
0.775239	101.2
0.752062	100.18
0.725029	99.6784
0.701858	99.1746
0.67482	98.157
0.651643	97.1375
0.624616	97.1514
0.601445	96.6476
0.572465	94.5995
0.55316	94.6094
0.528064	94.6224
0.499107	94.6373
0.473994	93.103
0.452758	93.114
0.423795	92.6131
0.400629	92.6251
0.373592	91.6075
0.354287	91.6175
0.327249	90.5999
0.298291	90.6148
0.277039	89.0785
0.248087	89.6092
0.197873	87.5721
0.197873	87.5721
0.228766	88.0719
0.176626	86.5515
0.134155	86.5734
0.143808	86.5684
0.126422	85.5459
0.0993788	84.0125
0.0819933	82.99
0.0665494	82.998
0.0530083	80.4261
0.0394893	79.9174
0.0278953	78.8918
0.0201568	77.3485
0.00852403	72.7127
0.00267724	67.5581

File: acs.inorgchem.5b02316_page_5_FJU-14-BF4-a_ads.txt
# Relative Pressure (p/p0)    Quantity Adsorbed
0.906035	 108.46
0.818619	107.203
0.751814	104.572
0.674686	103.305
0.600108	102.935
0.520361	103.471
0.463787	103.082
0.363499	102.29
0.294075	101.464
0.260673	100.148
0.234964	99.7258
0.204122	98.8583
0.170708	97.9935
0.134745	96.2306
0.101377	93.5639
0.0680676	88.645
0.0501789	84.1598
0.00666194	76.0988
0.0094194	68.8886
-0.00807543	49.0877
-0.00746137	25.2131

File: acs.inorgchem.5b02316_page_5_FJU-14-BF4-a_des.txt
# Relative Pressure (p/p0)    Quantity Adsorbed
0.977001	 110.427
0.85905	110.535
0.759048	110.626
0.664203	109.344
0.587279	109.414
0.464199	109.527
0.387294	108.684
0.271917	108.333
0.169332	109.339
0.0950004	108.038

File: acs.inorgchem.5b02316_page_5_FJU-14-ClO4-a_ads.txt
# Relative Pressure (p/p0)    Quantity Adsorbed
0.917135	 76.9163
0.85026	76.9886
0.814263	76.577
0.740449	46.4767
0.671338	33.4883
0.594315	28.1662
0.522366	25.5413
0.447833	23.3696
0.296149	20.8309
0.252447	19.9772
0.234477	18.6453
0.20104	18.6814
0.165054	17.8194
0.136761	17.85
0.108503	16.5292
0.0751003	15.214
0.0519747	14.3381
0.0159887	13.4761
0.00316297	12.1386

File: acs.inorgchem.5b02316_page_5_FJU-14-ClO4-a_des.txt
# Relative Pressure (p/p0)    Quantity Adsorbed
0.997436	 81.6777
0.866667	78.4241
0.769231	77.0108
0.674359	69.2109
0.615385	36.3323
0.582051	32.2106
0.476923	25.3185
0.374359	22.5341
0.279487	20.2094
0.194872	18.802
0.0974359	16.4762

File: acs.inorgchem.5b02316_page_5_FJU-14-NO3-a_ads.txt
# Relative Pressure (p/p0)    Quantity Adsorbed
-0.00427523	 1.33582
0.0163015	1.31357
0.0522875	2.17557
0.0522875	2.17557
0.0702922	2.1561
0.114006	2.5593
0.160315	2.05878
0.160315	2.05878
0.198885	2.46754
0.227178	2.43695
0.260615	2.4008
0.294052	2.36465
0.371203	2.7317
0.132011	2.53983
0.445794	2.65106
0.522968	2.11718
0.594952	3.39071
0.679831	3.29895
0.746682	4.12758
0.82381	5.39555
0.900903	8.0149

File: acs.inorgchem.5b02316_page_5_FJU-14-NO3-a_des.txt
# Relative Pressure (p/p0)    Quantity Adsorbed
0.977996	 10.6343
0.864905	7.60337
0.767258	4.10533
0.661803	4.21934
0.564075	3.87454
0.489508	3.05425
0.489508	3.05425
0.39178	2.70945
0.268331	2.39246
0.173176	2.04488
0.090892	1.23293
0.0317224	1.74735

File: acs.inorgchem.6b00081-si_page_2_ads.txt
# Relative Pressure (p/p0)    Quantity Adsorbed
0.993088	 153.42
0.974654	152.457
0.9447	152.487
0.928571	152.012
0.907834	152.032
0.880184	151.569
0.857143	150.12
0.827189	150.64
0.792627	149.203
0.748848	148.265
0.702765	146.348
0.652074	146.398
0.601382	144.976
0.550691	142.573
0.497696	141.154
0.458525	139.231
0.398618	137.327
0.35023	137.375
0.299539	135.953
0.258065	134.032
0.202765	132.124
0.186636	129.688
0.175115	129.699
0.147465	128.255
0.124424	127.297
0.0990783	126.341
0.0875576	125.861
0.062212	124.415
0.0483871	123.938
0.0276498	121.506
0.016129	118.084
0.00691244	115.15
0.00691244	111.227
0.00691244	107.303
0.00691244	101.908
0.00691244	97.0032
0.00230415	89.1603
0.00460829	82.7821
0.00691244	74.4419
0.00230415	67.58
0.00460829	60.2207
0.00460829	52.8638
0.00460829	45.0164
0.00230415	39.6236
0.00691244	33.243
0.00691244	22.4528
0.00460829	17.06
0.00230415	8.23391
0.00691244	1.3629

File: acs.inorgchem.6b00081-si_page_9_1_ads.txt
# Relative Pressure (p/p0)    Quantity Adsorbed
0.0772734	 146.802
0.0866296	146.978
0.098899	147.61
0.108064	147.874
0.121041	148.464
0.130569	148.555
0.142863	149.215
0.150835	150.138
0.159671	149.781
0.172221	150.392
0.181794	151.007
0.200213	151.728
0.210226	151.73
0.221598	151.923
0.231675	152.459
0.24959	152.662
0.258995	152.659
0.270975	152.577
0.281052	153.269
0.299191	153.744
0.306749	153.566
0.32136	154.088
0.330934	154.078
0.349352	154.686
0.356126	154.804
0.371745	154.896
0.38283	155.636
0.395838	155.808
0.403272	155.777
0.421123	155.598
0.432207	156.27
0.44523	156.771
0.454377	157.033
0.465125	156.926
0.476546	157.153
0.487001	157.223
0.498715	157.648
0.507785	157.559
0.520885	157.967
0.531969	157.956
0.545271	158.523
0.553685	158.541
0.566663	158.765
0.576308	158.771
0.585953	158.869
0.599114	159.364
0.606942	159.395
0.620647	159.478
0.631731	159.467
0.647631	159.589
0.655748	159.623
0.670024	159.43
0.681109	160.17
0.69441	160.382
0.702825	160.336
0.715119	160.244
0.725447	160.204
0.736028	160.974
0.751424	161.137
0.759541	161.165
0.773817	160.937
0.78339	160.927
0.795986	161.407
0.805559	161.395
0.823978	161.799
0.832096	161.845
0.847008	162.338
0.855273	162.358
0.873355	162.585
0.881473	162.619
0.900563	163.154
0.907337	163.272
0.923593	163.121
0.933929	163.193
0.944489	163.349
0.958427	163.941
0.967295	163.95
0.97838	164.729
0.989464	165.127
0.996014	165.384

File: acs.inorgchem.6b00081-si_page_9_1_des.txt
# Relative Pressure (p/p0)    Quantity Adsorbed
0.00230415	 -0.103969
0.00230415	7.74344
0.00691244	13.6245
0.0	17.555
0.0	27.3642
0.00691244	36.6763
0.00460829	44.5259
0.00230415	49.9233
0.00460829	58.7494
0.00460829	65.6158
0.00460829	72.4823
0.00460829	81.3107
0.00460829	83.763
0.00460829	93.5722
0.00460829	98.9673
0.00230415	104.365
0.00230415	108.288
0.0	115.157
0.0	119.081
0.00460829	123
-0.00230415	131.835
0.00460829	138.204
0.00691244	127.902
0.0299539	142.103
0.0552995	143.55
0.078341	145.489
0.103687	147.916
0.12212	148.389
0.138249	148.863
0.175115	151.28
0.202765	151.253
0.267281	152.661
0.301843	154.589
0.352535	154.539
0.40553	154.487
0.451613	157.384
0.502304	157.825
0.550691	158.268
0.601382	158.709
0.64977	159.152
0.707373	159.586
0.75576	161.5
0.804147	161.453
0.822581	161.435
0.854839	161.894
0.87788	161.871
0.903226	162.827
0.953917	165.23
0.967742	164.726

File: acs.inorgchem.6b00081-si_page_9_2_ads.txt
# Relative Pressure (p/p0)    Quantity Adsorbed
0.00451746	 105.201
0.00292586	101.773
0.00427586	95.7859
0.0045716	75.0972
0.00572783	89.1356
0.00531332	82.3538
0.00800509	108.531
0.00676849	99.7009
0.00913661	93.5848
0.00857565	84.8443
0.00864876	77.3849
0.00654396	71.2705
0.0101364	68.2555
0.0083619	63.3944
0.0106845	61.1257
0.0062428	59.5344
0.0081724	56.0096
0.0104973	53.8328
0.00606116	52.456
0.00599905	50.0353
0.0102381	46.8532
0.00587953	45.3776
0.00781699	42.1592
0.00927897	40.0915
0.00569789	38.2992
0.00763054	34.8931
0.00909383	32.8766
0.00551625	31.2208
0.00545413	28.8001
0.00539359	26.4406
0.00898598	23.4256
0.00527407	21.783
0.0052151	19.4848
0.00867852	16.6918
0.00711383	14.7572
0.00702714	11.3789
0.00848837	9.2819
0.00491079	7.62616
0.00684197	4.16257
0.00855478	2.0295
0.00472916	0.547754
0.0164157	112.036
0.0216811	114.053
0.0326185	117.436
0.0395774	118.72
0.0512713	121.784
0.061697	123.535
0.0720318	123.926
0.0831668	124.89
0.0891906	125.935
0.0962867	124.484
0.100239	126.68
0.110482	126.641
0.130726	128.328
0.144314	128.455
0.155401	128.861
0.1661	129.203
0.168796	127.436
0.17787	130.088
0.188344	130.137
0.200267	131.189
0.209949	131.437
0.205506	129.793
0.223156	131.607
0.23284	132.285
0.243956	132.484
0.255508	133.289
0.26637	133.816
0.272332	132.291
0.277411	134.065
0.291485	134.762
0.302837	134.811
0.313287	134.843
0.324839	135.662
0.335965	136.271
0.348024	136.345
0.354817	134.878
0.358206	137.059
0.369597	136.745
0.380436	137.419
0.39156	137.96
0.402656	137.413
0.412819	137.379
0.426352	138.678
0.436038	139.41
0.447568	139.344
0.457996	138.545
0.468232	139.37
0.480489	139.798
0.491616	140.426
0.503506	140.211
0.513419	140.581
0.526407	141.111
0.536094	141.886
0.547913	142.239
0.55837	141.714
0.559468	140.88
0.57118	142.805
0.58259	143.209
0.593708	143.545
0.605209	142.996
0.612153	142.034
0.621996	143.804
0.633118	144.276
0.644234	144.505
0.654672	144.537
0.664161	143.68
0.671522	145.154
0.682645	145.656
0.693767	146.118
0.704872	145.918
0.715982	145.883
0.727117	146.872
0.738245	147.549
0.749355	147.544
0.759578	146.704
0.774614	147.873
0.785755	149.057
0.796865	149.051
0.807945	147.886
0.819008	148.502
0.82546	149.19
0.833213	148.546
0.852446	150.194
0.862586	149.133
0.874685	150.924
0.88391	149.623
0.897938	151.819
0.90751	150.898
0.919667	152.34
0.932276	151.686
0.944854	152.657
0.954694	151.497
0.963582	151.514
0.974717	152.484
0.986828	152.093
0.995562	152.973
1.00301	153.104

File: acs.inorgchem.6b00081-si_page_9_2_des.txt
# Relative Pressure (p/p0)    Quantity Adsorbed
0.979263	 154.415
0.951613	153.461
0.921659	153.49
0.900922	153.02
0.873272	153.047
0.859447	152.57
0.827189	151.621
0.804147	151.644
0.753456	150.712
0.705069	148.307
0.654378	147.376
0.603687	145.955
0.550691	144.535
0.506912	144.578
0.456221	143.156
0.400922	141.249
0.352535	139.825
0.306452	138.889
0.25576	138.448
0.209677	137.022
0.152074	134.136
0.124424	133.182
0.110599	132.215
0.0852535	131.259

File: acs.inorgchem.6b00081-si_page_9_3_ads.txt
# Relative Pressure (p/p0)    Quantity Adsorbed
0.990783	 142.632
0.970046	141.181
0.949309	142.182
0.914747	141.726
0.875576	141.274
0.822581	140.345
0.806452	140.851
0.758065	139.427
0.700461	138.012
0.658986	138.053
0.601382	137.129
0.548387	137.181
0.504608	136.243
0.453917	134.821
0.40553	134.868
0.347926	133.944
0.297235	132.522
0.260369	132.068
0.207373	130.649
0.179724	129.695
0.154378	127.758
0.129032	127.783
0.0921659	124.876
0.0645161	122.941
0.0138249	117.596
0.00230415	96.5173
0.00460829	83.2725

File: acs.inorgchem.6b00081-si_page_9_3_des.txt
# Relative Pressure (p/p0)    Quantity Adsorbed
0.988479	 143.125
0.974654	143.138
0.926267	143.186
0.907834	143.204
0.870968	142.259
0.857143	142.273
0.827189	142.302
0.801843	140.365
0.801843	140.365
0.700461	140.955
0.700461	140.955
0.758065	140.899
0.596774	139.095
0.596774	139.095
0.5	138.209
0.5	138.209
0.400922	136.344
0.400922	136.344
0.451613	137.275
0.354839	135.899
0.297235	134.975
0.253456	133.546
0.207373	133.591
0.154378	132.662
0.115207	131.229
0.105991	131.238
0.0829493	130.28

File: acs.inorgchem.6b00136_page_3_buim_ads.txt
# Relative Pressure (p/p0)    Quantity Adsorbed
0.977565	 267.634
0.966773	267.624
0.945191	267.603
0.623251	267.301
0.569278	269.128
0.522524	268.145
0.473972	267.161
0.418217	267.109
0.369665	266.124
0.335492	266.092
0.322902	266.08
0.312111	266.07
0.281536	266.041
0.272551	265.094
0.259962	265.082
0.236581	265.06
0.200618	264.087
0.184448	262.194
0.164664	262.176
0.137703	260.272
0.112523	260.249
0.0909659	257.412
0.0801746	257.401
0.062206	255.507
0.0550372	252.683
0.047843	252.676
0.028135	244.207
0.0173944	238.563
-0.000531964	231.974
0.00491434	226.345
0.00321712	215.076
0.00331844	203.808
-0.000126658	186.904
1.11022e-16	172.819
0.00191676	159.675
0.00204342	145.591
0.00218696	129.629
0.00231362	115.544
0.0024825	96.7652
0.00265982	77.047
0.00276115	65.7795
0.00291314	48.8782
0.00307357	31.038
0.00141013	16.013

File: acs.inorgchem.6b00136_page_3_buim_des.txt
# Relative Pressure (p/p0)    Quantity Adsorbed
0.955974	 268.552
0.923608	267.583
0.896638	266.619
0.878653	266.602
0.842674	267.507
0.82289	267.489
0.797718	266.526
0.770732	267.44
0.747351	267.418
0.727567	267.399
0.698798	266.433
0.670013	267.345
0.650229	267.326
0.599878	266.34
0.549511	267.232
0.497353	267.183
0.450591	267.139
0.398433	267.09
0.346283	266.102
0.29774	264.179
0.249179	264.133
0.225815	262.233
0.200652	260.332
0.171875	260.304
0.150301	259.345
0.12334	257.442
0.0999755	255.542
0.0856209	251.773
0.0676355	251.756
0.0460782	248.919
0.0299251	245.148
0.0227563	242.324

File: acs.inorgchem.6b00136_page_3_eim_ads.txt
# Relative Pressure (p/p0)    Quantity Adsorbed
0.964586	 310.814
0.946635	307.041
0.921463	306.079
0.869306	306.03
0.844118	306.945
0.827931	306.93
0.791985	304.079
0.772193	305
0.741617	304.971
0.720035	304.951
0.700268	303.054
0.67687	304.91
0.658876	305.832
0.648076	306.761
0.615711	305.792
0.601322	305.778
0.570739	306.688
0.54376	306.663
0.520388	305.702
0.471819	306.596
0.423266	305.611
0.371117	304.623
0.336953	303.652
0.320766	303.637
0.313572	303.63
0.290191	303.608
0.275802	303.595
0.265011	303.584
0.236234	303.557
0.212853	303.535
0.182295	301.629
0.162511	301.61
0.140937	300.651
0.117589	296.873
0.0995955	297.795
0.0726258	296.831
0.0510686	293.994
0.0367055	291.163
0.025948	287.398
0.017006	281.755
0.00983712	278.932
0.00629913	272.356
0.00636668	264.844
0.00110615	249.816
0.00512543	202.871
0.00172255	181.271
0.00188298	163.431
0.00199276	151.225
0.000481301	119.298
0.000743061	90.1907
-0.00439926	62.0169
0.00493122	24.467
0.00149457	6.62338

File: acs.inorgchem.6b00136_page_3_eim_des.txt
# Relative Pressure (p/p0)    Quantity Adsorbed
0.980782	 309.89
0.930431	308.904
0.955602	309.867
0.905277	306.064
0.849522	306.011
0.872903	306.033
0.826141	305.989
0.800952	306.905
0.748778	308.734
0.723598	308.71
0.67144	308.661
0.700225	307.749
0.642672	307.695
0.54555	307.604
0.496973	309.436
0.448446	305.635
0.396305	303.708
0.347727	305.54
0.297385	303.615
0.250631	302.632
0.225452	302.608
0.196692	300.703
0.176899	301.624
0.149938	299.721
0.12296	299.695
0.0995787	299.673
0.0798115	297.777
0.0636415	295.884
0.0546741	293.058
0.0313183	290.219
0.0187623	286.452
0.0438828	293.048
0.00450903	271.415
-0.0043486	256.383
-0.000219541	197.232
0.00184921	167.187
-0.0030398	110.844
-0.00255005	56.3848
-0.000312423	7.56065

File: acs.inorgchem.6b00136_page_3_mim_ads.txt
# Relative Pressure (p/p0)    Quantity Adsorbed
0.982141	 358.718
0.965971	356.825
0.951591	355.872
0.926412	355.849
0.899442	354.884
0.872472	353.92
0.845494	353.895
0.814919	353.866
0.802329	353.854
0.786142	353.839
0.746582	352.863
0.721403	352.839
0.696223	352.816
0.689029	352.809
0.662051	352.784
0.618877	353.682
0.588302	353.653
0.474985	354.486
0.422844	352.559
0.408464	351.606
0.374292	351.574
0.336514	352.478
0.327521	352.469
0.314931	352.458
0.284356	352.429
0.273565	352.419
0.268169	352.414
0.239409	350.509
0.210633	350.482
0.183671	348.578
0.1585	347.616
0.138724	346.658
0.115343	346.636
0.0973664	345.681
0.0183823	328.705
0.013012	325.883
0.0112472	322.125
0.0112472	322.125
0.00591071	315.548
0.00233051	313.666
0.00236429	309.911
0.00238962	307.094
0.000700842	294.886
-0.0010386	288.311
-0.000920383	275.166
0.00105548	255.449
0.00136791	220.708
-0.00546319	180.326
-0.00146079	135.259
-0.00108926	93.9449
-0.000312423	7.56065

File: acs.inorgchem.6b00136_page_3_mim_des.txt
# Relative Pressure (p/p0)    Quantity Adsorbed
0.965954	 358.703
0.956978	356.816
0.926412	355.849
0.906628	355.83
0.874254	355.8
0.849074	355.776
0.820306	354.81
0.802329	353.854
0.771754	353.825
0.748372	353.804
0.721394	353.778
0.698013	353.756
0.671035	353.731
0.660244	353.721
0.649452	353.711
0.64046	353.702
0.622474	353.685
0.597303	352.723
0.575712	353.641
0.566719	353.633
0.559525	353.626
0.548734	353.616
0.527151	353.596
0.519966	352.65
0.503779	352.635
0.476809	351.671
0.448024	352.583
0.395866	352.534
0.350911	351.552
0.295164	350.561
0.242998	351.451
0.223231	349.555
0.199858	348.594
0.169283	348.565
0.149499	348.546
0.124345	345.706
0.0955678	345.679
0.0794147	341.908
0.0596391	340.95
0.039872	339.054
0.0345017	336.232
0.0237526	331.527
0.0165753	329.642

File: acs.inorgchem.6b00136_page_3_pim_ads.txt
# Relative Pressure (p/p0)    Quantity Adsorbed
0.966579	 289.22
0.941391	290.135
0.619451	289.833
0.567285	290.723
0.522321	290.68
0.473786	287.818
0.42341	289.649
0.373059	288.662
0.329894	288.622
0.317304	288.61
0.304723	287.659
0.284939	287.641
0.261574	285.741
0.268769	285.748
0.236403	284.778
0.207627	284.751
0.186052	283.792
0.162671	283.77
0.159074	283.767
0.141097	282.811
0.1375	282.807
0.112354	279.028
0.110556	279.026
0.0871746	279.004
0.0692145	276.171
0.0584401	274.282
0.0386814	271.447
0.0386983	269.569
0.0118045	260.154
0.0100313	257.336
0.00466102	254.514
0.00112304	247.938
-0.00423038	243.238
-0.00581783	219.762
-0.000177321	192.537
0.00195054	155.92
0.00211941	137.14
0.00417972	108.034
0.00254161	90.1924
-0.000903495	73.2878
0.00289625	50.7561
-0.000624847	42.3021

File: acs.inorgchem.6b00136_page_3_pim_des.txt
# Relative Pressure (p/p0)    Quantity Adsorbed
0.980951	 291.111
0.953989	289.208
0.923422	288.24
0.894646	288.213
0.873072	287.254
0.844261	290.983
0.824511	287.208
0.799331	287.185
0.768748	288.095
0.743551	289.949
0.718371	289.926
0.698604	288.029
0.67882	288.011
0.646446	287.98
0.597869	289.812
0.543895	291.64
0.498932	291.597
0.441395	289.666
0.400029	289.627
0.349686	287.701
0.299327	287.654
0.252582	285.732
0.218418	284.761
0.193247	283.799
0.177085	280.967
0.153704	280.945
0.119532	280.913
0.0979828	277.137
0.0854183	274.308
0.0692482	272.415
0.058457	272.405
0.0494811	270.518
0.0315379	265.807
0.0189818	262.039

File: acs.inorgchem.6b00276-si_page_38_23_ads.txt
# Relative Pressure (p/p0)    Quantity Adsorbed
0.991289	 164.41
0.972045	141.059
0.949012	131.738
0.899157	127.127
0.899157	127.127
0.927921	130.207
0.870403	127.165
0.820553	124.113
0.799462	122.582
0.772625	122.616
0.749622	122.646
0.724707	124.237
0.695958	125.833
0.68254	125.85
0.651849	119.656
0.630763	119.684
0.605853	122.833
0.569426	121.322
0.569426	121.322
0.529166	119.816
0.498495	119.856
0.475487	118.327
0.475487	118.327
0.425642	116.833
0.425642	116.833
0.452479	116.798
0.394976	118.432
0.379641	118.451
0.350882	116.93
0.302954	115.434
0.302954	115.434
0.329806	120.075
0.278034	115.467
0.222433	112.422
0.222433	112.422
0.251187	112.384
0.205181	112.444
0.176417	109.365
0.153409	107.836
0.122733	106.318
0.101652	107.903
0.0728929	106.382
0.0575526	104.844
0.0364415	97.079
0.0172573	92.4286

File: acs.inorgchem.6b00276-si_page_38_23_des.txt
# Relative Pressure (p/p0)    Quantity Adsorbed
0.975899	 147.287
0.949032	137.972
0.899177	133.361
0.899177	133.361
0.926014	133.326
0.874247	130.277
0.8474	127.195
0.820563	127.229
0.774567	130.406
0.774567	130.406
0.74772	127.324
0.724727	130.471
0.701719	128.942
0.671043	127.424
0.649957	127.451
0.626954	127.481
0.600117	127.516
0.57327	124.434
0.550277	127.58
0.527274	127.61
0.502354	127.643
0.469756	124.568
0.450592	126.152
0.423755	126.186
0.400747	124.658
0.377739	123.129
0.354741	124.718
0.325987	124.755
0.301067	124.787
0.276142	123.261
0.249305	123.296
0.226302	123.326
0.203284	118.68
0.178369	120.271
0.155361	118.743
0.128524	118.778
0.0997548	114.14
0.0729129	112.616
0.0518267	112.643
0.0268818	104.884

File: acs.inorgchem.6b00276-si_page_38_24_ads.txt
# Relative Pressure (p/p0)    Quantity Adsorbed
0.996203	 502.586
0.974838	415.341
0.953663	387.316
0.922932	368.655
0.903733	359.329
0.873032	350.018
0.855765	345.366
0.83081	334.489
0.802046	331.409
0.775185	323.652
0.752176	322.123
0.727246	319.039
0.704243	319.069
0.673558	314.433
0.65629	309.78
0.627532	308.259
0.6007	309.853
0.575765	305.21
0.552752	302.123
0.5259	297.482
0.499058	295.959
0.47604	291.313
0.447281	289.792
0.422351	286.708
0.399348	286.738
0.376335	283.651
0.349488	280.569
0.328392	277.479
0.297716	275.96
0.278542	274.427
0.249768	268.23
0.22675	263.585
0.203737	260.498
0.17689	257.416
0.150043	254.334
0.127015	246.572
0.0982611	246.609
0.07715	238.844
0.05222	235.76
0.031099	224.878
0.00994809	204.646
0.0041774	198.42
0.0022306	189.071
0.00219575	178.162
0.00216588	168.812
0.002136	159.461
0.00020414	154.788
0.000164308	142.321
0.000139413	134.529
0.000109539	125.178
6.97064e-05	112.711
2.98742e-05	100.243
-0.00193684	84.6613
-0.00195676	78.4275
-0.00198663	69.0769

File: acs.inorgchem.6b00276-si_page_38_24_des.txt
# Relative Pressure (p/p0)    Quantity Adsorbed
0.976905	 462.091
0.949988	437.191
0.923116	426.317
0.875143	410.795
0.875143	410.795
0.903917	416.991
0.846375	406.157
0.846375	406.157
0.80227	401.539
0.825283	404.626
0.77159	398.462
0.750489	393.814
0.698712	387.647
0.698712	387.647
0.725559	390.729
0.673772	381.446
0.646925	378.364
0.627741	373.714
0.604728	370.627
0.579793	365.984
0.552946	362.902
0.501179	359.852
0.501179	359.852
0.52227	361.383
0.47608	303.781
0.453066	300.694
0.428131	296.051
0.399363	291.413
0.378272	289.882
0.357185	289.909
0.326495	283.715
0.297731	280.636
0.274728	280.666
0.253622	274.459
0.224858	271.38
0.205689	271.405
0.176915	265.208
0.15198	260.565
0.125138	259.042
0.102115	252.838
0.0733411	246.641
0.0541569	241.991
0.0234413	228.005

File: acs.inorgchem.6b00276-si_page_38_25_ads.txt
# Relative Pressure (p/p0)    Quantity Adsorbed
0.992063	 327.778
0.974888	314.757
0.923231	293.056
0.923231	293.056
0.900225	289.583
0.875307	285.243
0.848482	279.167
0.823583	272.222
0.800584	267.882
0.777598	261.806
0.746921	257.465
0.725854	251.389
0.695178	247.049
0.674098	242.708
0.649159	240.972
0.622334	234.896
0.601254	230.556
0.570611	221.875
0.549511	220.139
0.522679	214.931
0.497754	211.458
0.476667	207.986
0.453675	202.778
0.42685	196.701
0.401918	194.097
0.371241	189.757
0.350181	182.8125
0.325249	180.208
0.30225	175.868
0.271573	171.528
0.242829	165.451
0.227487	163.715
0.196824	157.639
0.173831	152.431
0.148912	148.09
0.122088	142.014
0.0990816	138.542
0.0722769	129.861
0.0454455	124.653
0.0454455	124.653
0.0243722	119.444
0.00526498	108.16
-0.000446524	102.083
-0.00229926	93.4028
-0.00227261	89.9306
-0.00223928	85.5903
-0.00221929	82.9861
-0.00219263	79.5139
-0.0040587	72.5694
-0.00403204	69.0972
-0.00400538	65.625
-0.00203268	58.6806
-0.00197937	51.7361

File: acs.inorgchem.6b00276-si_page_38_25_des.txt
# Relative Pressure (p/p0)    Quantity Adsorbed
0.994002	 325.174
0.974888	314.757
0.951869	313.021
0.925774	302.17
0.899148	297.95
0.875188	293.731
0.84859	285.894
0.820645	279.866
0.8046875	275.043
0.774063	270.824
0.748784	264.796
0.699545	254.548
0.699545	254.548
0.675576	251.534
0.648964	245.505
0.626351	239.477
0.59973	234.655
0.577103	230.435
0.549154	225.01
0.523875	218.981
0.499915	214.762
0.475959	209.939
0.449343	204.514
0.425383	200.294
0.402751	196.677
0.37613	191.855
0.349504	187.635
0.325545	183.415
0.298905	181.004
0.273612	176.784
0.249661	171.359
0.224382	165.331
0.201755	161.111
0.176472	155.686
0.148518	150.863
0.123225	146.644
0.0979414	141.218
0.0460367	130.97
0.0460367	130.97
0.0221	123.736