Folder: Experimental-Data-Digitalization/data/nitrogen-adsorption-isotherms (part 4)

File: c5dt01100k-si_page_28_STA-12(Cd)_ads.txt
# Relative Pressure (p/p0)    Quantity Adsorbed
0.0348346	 33.7471
0.0459245	34.4328
0.0570119	34.8691
0.0681001	35.3927
0.0791874	35.8291
0.0902749	36.2779
0.101361	36.6145
0.112448	37.001
0.123534	37.3376
0.134621	37.7365
0.145707	38.0233
0.156793	38.3599
0.167879	38.6217
0.178965	38.9334
0.190052	39.2949
0.201137	39.5941
0.212224	39.9183
0.223309	40.1177
0.234394	40.3795
0.245479	40.5291
0.256565	40.8782
0.26765	41.0527
0.278735	41.3021
0.28982	41.4642
0.300905	41.6886
0.311989	41.8132
0.323074	42.0376
0.334161	42.3992
0.345246	42.6859
0.356331	42.848
0.367415	42.9602
0.3785	43.1971
0.389585	43.3342
0.400669	43.5337
0.411754	43.6708
0.422838	43.8453
0.433923	43.9825
0.445008	44.2069
0.456093	44.4687
0.467178	44.6308
0.478264	44.9424
0.489349	45.1419
0.500433	45.2915
0.511518	45.4536
0.522603	45.7029
0.533688	45.9149
0.544773	46.1268
0.555859	46.426
0.566944	46.613
0.57803	46.9122
0.589115	47.1366
0.600201	47.4608
0.611286	47.5979
0.622372	47.922
0.633458	48.2586
0.644544	48.5579
0.65563	48.9069
0.666715	49.0815
0.677803	49.5926
0.688889	49.9168
0.699976	50.3032
0.711063	50.7022
0.72215	51.1011
0.733239	51.6621
0.744325	52.0486
0.755415	52.672
0.766503	53.1831
0.777593	53.8688
0.788683	54.5919
0.799774	55.4396
0.810866	56.3123
0.82196	57.3346
0.833052	58.2821
0.84415	59.7407
0.855245	60.9874
0.866349	62.9946
0.87745	64.8272
0.88856	67.4578
0.899669	69.9886
0.908261	72.75
0.914837	75.4242
0.921414	78.1212
0.929455	80.7185
0.935586	84.7037
0.940991	87.7616
0.946746	92.1777
0.950578	95.2771
0.954375	99.3316
0.960992	105.995
0.956921	102.029
0.964568	110.84
0.969842	118.854
0.96662	114.508
0.975843	129.673
0.972762	123.936
0.973796	126.576
0.977914	135.181
0.982307	146.051
0.979968	139.021
0.980508	142.484
0.986296	157.719
0.984124	151.352
0.984661	154.552
0.989353	170.094
0.990969	180.306
0.987254	161.866
0.988301	165.66
0.99062	175.753

File: c5dt01100k-si_page_28_STA-12(Cd)_des.txt
# Relative Pressure (p/p0)    Quantity Adsorbed
0.0892952	 39.0082
0.100383	39.4694
0.111468	39.7437
0.122555	40.1427
0.133641	40.4294
0.144727	40.7535
0.155814	41.0777
0.166899	41.2896
0.177986	41.6886
0.18907	41.8382
0.200156	42.1124
0.211241	42.3244
0.222327	42.6859
0.233412	42.8979
0.244498	43.1472
0.255583	43.3716
0.266667	43.5087
0.277752	43.6833
0.288836	43.8204
0.299922	44.1695
0.311007	44.3565
0.322093	44.6308
0.333177	44.7305
0.344262	44.905
0.355346	45.0796
0.366431	45.2458
0.377516	45.4411
0.3886	45.624
0.399685	45.8027
0.410769	45.9298
0.421854	46.1268
0.432939	46.3512
0.444024	46.5257
0.455108	46.6629
0.466193	46.8125
0.47728	47.2364
0.488365	47.5106
0.499451	47.735
0.510535	47.8622
0.52162	48.0592
0.532704	48.1838
0.543789	48.4332
0.554876	48.8072
0.56596	48.9319
0.577045	49.1064
0.588129	49.2685
0.599215	49.5801
0.6103	49.7422
0.621387	50.1786
0.632473	50.4902
0.643559	50.8144
0.654645	51.0762
0.66573	51.3255
0.676819	51.899
0.687906	52.273
0.698993	52.7218
0.710079	53.0335
0.721168	53.6444
0.732257	54.2179
0.743346	54.8412
0.754438	55.6516
0.765528	56.412
0.776621	57.4219
0.787715	58.4442
0.798807	59.4041
0.809905	60.8378
0.821002	62.2715
0.832102	63.8673
0.843206	65.9368
0.853301	67.8969
0.863402	70.3875
0.873498	72.4833
0.883104	75.8219
0.893718	79.2391
0.901366	81.1251
0.907883	85.0629
0.914967	88.1583
0.922809	91.4634
0.929152	95.9672
0.936095	99.3251
0.937269	101.45
0.942854	105.8
0.948987	110.573
0.945394	107.788
0.953536	115.879
0.958706	121.22
0.955574	118.074
0.961694	125.388
0.965682	131.184
0.96323	127.879

File: c5nj02634b_page_6_4_ads.txt
# Relative Pressure (p/p0)    Quantity Adsorbed
-0.00321674	 123.291
-0.00375132	104.358
-0.00387887	86.6549
-0.00400105	69.695
-0.00412324	52.7351
-0.00385762	34.337
-0.00444283	8.37591
0.000440315	244.026
-0.000114078	222.343
-0.00143683	204.544
-0.00154794	189.122
-0.00165745	173.922
-0.00177461	157.66
-0.00189013	141.626
0.00604644	273.935
0.0103482	292.855
0.0190002	314.726
0.0425106	335.686
0.0776136	344.544
0.112692	349.959
0.14776	353.947
0.184088	356.049
0.221052	357.889
0.256101	359.21
0.291145	359.973
0.326196	361.542
0.361234	361.375
0.39628	362.324
0.431327	363.459
0.466366	363.416
0.501412	364.365
0.536458	365.315
0.571498	365.395
0.606545	366.469
0.641579	365.743
0.676268	366.252
0.706905	369.322
0.749907	369.269
0.788528	369.017
0.815209	369.529
0.855028	369.759
0.883699	370.078
0.925109	370.148
0.960144	369.521
0.993599	370.742

File: c5nj02634b_page_6_4_des.txt
# Relative Pressure (p/p0)    Quantity Adsorbed
0.960289	 370.707
0.900244	369.752
0.845024	371.878
0.780153	367.843
0.720115	367.917
0.684107	370.019
0.624062	369.064
0.573638	370.155
0.520789	368.163
0.484759	367.179
0.448737	367.223
0.403108	367.279
0.381494	367.306
0.352668	366.313
0.30704	366.369
0.268578	361.273
0.234957	361.314
0.206124	359.292
0.174904	359.331
0.122049	356.31
0.0907995	352.233
0.0547397	347.133
0.0210147	332.772
0.0160116	305
0.00377423	273.122

File: c5nj03044g_page_2_1_ads.txt
# Relative Pressure (p/p0)    Quantity Adsorbed
0.0331235	 0.83414
0.0539203	1.54053
0.074717	2.06448
0.0955137	2.32184
0.11631	2.85946
0.137107	3.32918
0.157904	3.80388
0.178701	4.23221
0.199497	4.71791
0.220294	5.15758
0.241879	5.67189
0.260123	5.96264
0.282684	6.46368
0.303481	6.83115
0.324278	7.15226
0.345074	7.49269
0.365083	7.72795
0.386668	8.13297
0.407465	8.36695
0.428261	8.79257
0.449058	9.18902
0.469855	9.42899
0.490651	9.77328
0.511448	10.0619
0.532245	10.4387
0.553042	10.8004
0.573838	11.0432
0.594635	11.4194
0.615621	11.6365
0.636229	12.108
0.657025	12.4812
0.677822	12.6748
0.698619	13.0365
0.719415	13.3576
0.740212	13.6671
0.761009	13.8491
0.779915	14.1583
0.802602	14.8202
0.823399	14.991
0.845816	15.5474
0.865533	15.6317
0.885339	16.0564
0.90835	16.3621
0.926302	16.7587
0.94899	17.0415
0.969291	17.1587
0.989773	17.5679

File: c5nj03044g_page_2_1_des.txt
# Relative Pressure (p/p0)    Quantity Adsorbed
0.960591	 17.6092
0.923645	17.4492
0.901478	17.1207
0.862069	16.9611
0.837438	16.4669
0.79064	16.1424
0.741379	15.8184
0.694581	14.9956
0.637931	14.3405
0.593596	13.6835
0.544335	13.0272
0.495074	12.2048
0.445813	11.7146
0.394089	10.7266
0.352217	9.73684
0.29803	9.08139
0.248768	7.42844
0.197044	6.27424
0.147783	5.28575
0.100985	3.63239

File: c5sc03494a-si_page_29_[(Cp2Co)1.8(TEA)1.2][In3(BTC)4]_ads.txt
# Relative Pressure (p/p0)    Quantity Adsorbed
-0.00225225	 9.59028
0.00675676	20.3741
0.0045045	29.3548
0.0045045	38.9356
0.0045045	47.9177
0.0045045	58.0973
0.00225225	67.078
0.0045045	77.8578
0.00225225	86.8385
0.0045045	96.4207
0.0045045	105.403
0.00225225	113.785
0.0	120.969
0.0045045	128.756
0.0045045	131.151
0.0045045	132.948
0.0045045	135.942
0.0135135	140.737
0.0225225	144.934
0.0608108	148.55
0.0608108	148.55
0.0675676	149.153
0.0923423	149.767
0.146396	150.997
0.204955	152.229
0.252252	154.054
0.304054	154.684
0.353604	156.51
0.403153	158.336
0.45045	159.562
0.502252	160.791
0.551802	162.018
0.603604	163.845
0.653153	165.671
0.702703	167.497
0.756757	169.925
0.801802	172.347
0.851351	174.772
0.903153	177.797
0.954955	179.625
0.993243	182.043

File: c5sc03494a-si_page_29_[(Cp2Co)1.8(TEA)1.2][In3(BTC)4]_des.txt
# Relative Pressure (p/p0)    Quantity Adsorbed
0.95045	 179.536
0.882883	177.167
0.831081	175.391
0.783784	173.01
0.731982	170.631
0.682432	169.456
0.630631	168.283
0.578829	167.109
0.533784	165.931
0.484234	164.756
0.432432	164.185
0.382883	163.613
0.331081	162.439
0.283784	161.865
0.22973	161.295
0.18018	159.518
0.132883	159.546
0.0855856	157.768

File: c5sc03494a-si_page_29_[Cp2Co]3[In3(BTC)4]_ads.txt
# Relative Pressure (p/p0)    Quantity Adsorbed
0.993243	 437.731
0.954955	430.523
0.90991	429.298
0.851351	427.467
0.808559	425.046
0.759009	423.819
0.704955	422.589
0.65991	421.364
0.608108	418.938
0.560811	418.311
0.511261	416.485
0.463964	414.66
0.414414	413.433
0.367117	411.608
0.313063	410.378
0.263514	406.755
0.213964	397.145
0.162162	390.527
0.121622	389.904
0.105856	389.895
0.0923423	389.886
0.0765766	389.877
0.0472973	388.662
0.0292793	388.651
0.0202703	388.646
0.0202703	384.454
0.018018	375.471
0.018018	366.489
0.018018	356.309
0.0202703	347.328
0.018018	337.147
0.018018	328.165
0.0202703	318.586
0.018018	310.201
0.018018	300.62
0.0202703	291.64
0.018018	282.058

File: c5sc03494a-si_page_29_[Cp2Co]3[In3(BTC)4]_des.txt
# Relative Pressure (p/p0)    Quantity Adsorbed
0.952055	 160.976
0.883562	160.366
0.8379	158.537
0.783105	157.317
0.73516	156.098
0.687215	155.488
0.63242	154.878
0.579909	153.659
0.52968	152.439
0.484018	151.22
0.431507	150.61
0.383562	149.39
0.33105	147.561
0.283105	146.341
0.228311	145.122
0.182648	140.854
0.134703	136.585
0.086758	132.927

File: c5sc03494a-si_page_29_[TEA]3[In3(BTC)4]_ads.txt
# Relative Pressure (p/p0)    Quantity Adsorbed
-0.000861227	 101.213
0.000159064	123.62
0.000115762	117.882
-0.000398443	112.624
-0.000304172	107.008
-0.000415583	95.3426
0.000225031	89.3735
-0.000415583	83.2449
0.000225031	77.0698
-1.45028e-05	69.1875
3.00616e-05	54.6792
4.31688e-05	36.6752
4.31688e-05	8.53043
0.00188691	130.484
0.00104133	62.8416
0.000908243	45.8644
0.000624254	27.2004
0.00773971	135.43
0.0213197	137.899
0.0324284	139.262
0.0856574	140.514
0.0984432	140.632
0.147714	141.002
0.156228	141.711
0.198193	141.498
0.207032	142.278
0.247713	142.363
0.257167	142.726
0.299516	142.625
0.30797	143.294
0.34845	142.99
0.356768	143.741
0.397584	143.748
0.406235	144.307
0.448098	144.452
0.45637	144.994
0.496517	145.007
0.505168	145.56
0.547321	145.606
0.555971	146.187
0.596614	146.307
0.606106	146.784
0.647403	146.729
0.656241	147.381
0.697057	147.76
0.705708	148.246
0.73512	148.92
0.748982	148.429
0.797799	149.368
0.805978	149.857
0.846794	150.187
0.855444	150.841
0.896388	151.187
0.904911	151.825
0.946356	151.845
0.954377	151.557

File: c5sc03494a-si_page_29_[TEA]3[In3(BTC)4]_des.txt
# Relative Pressure (p/p0)    Quantity Adsorbed
0.954853	 154.666
0.882619	154.019
0.8307	152.779
0.731377	152.114
0.731377	152.114
0.783296	152.75
0.683973	151.482
0.632054	150.846
0.580135	150.21
0.528217	148.971
0.480813	150.15
0.431151	148.912
0.38149	150.09
0.331828	148.248
0.284424	148.219
0.232506	148.188
0.180587	148.156
0.128668	148.125
0.0857788	148.099

File: c5ta04989j_page_2_Li-UPC-5_ads.txt
# Relative Pressure (p/p0)    Quantity Adsorbed
-0.0101097	 79.7866
-0.0101097	59.8251
-0.00581088	95.8639
-0.00294504	98.4723
0.00159255	20.3831
0.00511515	103.648
0.0187751	105.442
0.0325596	107.703
0.0480133	108.844
0.0597851	110.14
0.0744328	111.149
0.0888516	112.992
0.106244	112.366
0.129385	112.884
0.145995	113.241
0.161572	114.049
0.175718	113.512
0.192704	113.021
0.208466	113.321
0.224054	113.326
0.239219	113.542
0.255735	114.308
0.271728	115.017
0.285277	114.502
0.301599	114.68
0.317608	115.803
0.334365	115.009
0.349133	115.5
0.3673	114.728
0.382818	114.692
0.398273	114.927
0.414036	114.749
0.430275	115.278
0.446788	115.257
0.476663	115.828
0.494893	115.192
0.511083	115.028
0.526699	115.493
0.542558	115.244
0.558522	115.956
0.570511	116.557
0.60735	115.507
0.621809	115.098
0.638145	114.927
0.653081	115.115
0.669693	114.919
0.685455	115.017
0.699392	115.131
0.708358	114.153
0.719909	114.676
0.736142	116.097
0.74122	114.752
0.755788	114.96
0.771502	115.397
0.78569	115.273
0.802358	114.788
0.818421	114.812
0.833882	114.679
0.851077	114.679
0.866033	115.263
0.882601	114.869
0.89779	115.038
0.914126	114.839
0.929888	115.088
0.94565	115.261
0.962527	116.02
0.977174	116.522
0.993318	117.065

File: c5ta04989j_page_2_Li-UPC-5_des.txt
# Relative Pressure (p/p0)    Quantity Adsorbed
0.0936976	 116.8
0.10532	116.892
0.120286	117.278
0.136048	117.564
0.160886	117.933
0.175761	117.998
0.191932	117.958
0.209128	118.161
0.226323	118.226
0.251956	118.671
0.264295	118.673
0.300118	118.81
0.319463	118.513
0.335225	117.977
0.364042	118.563
0.379645	118.56
0.389676	118.299
0.414036	118.408
0.429798	117.77
0.44556	118.052
0.462755	118.325
0.489344	118.732
0.507335	118.642
0.52609	118.095
0.542794	118.853
0.557328	118.474
0.577389	118.772
0.594226	118.5
0.606047	119.066
0.633989	118.657
0.644736	118.66
0.668141	118.679
0.680559	118.69
0.706352	118.532
0.718532	118.719
0.749021	118.342
0.763828	117.757
0.774654	118.097
0.798059	118.187
0.809522	118.138
0.832449	118.023
0.847853	117.382
0.876665	118.273
0.890626	117.077
0.906961	117.979
0.922723	117.695
0.940028	117.376
0.954247	118.163
0.974499	117.291
0.988842	118.046
0.990548	116.296
0.999146	117.177

File: c5ta04989j_page_2_UPC-5_ads.txt
# Relative Pressure (p/p0)    Quantity Adsorbed
0.00552223	 98.5162
0.00493604	81.391
0.00493604	61.484
0.00493604	58.8517
0.00493604	41.3576
0.00493604	38.6705
0.00493604	21.341
0.00493604	18.5989
0.0285793	105.306
0.023564	102.751
0.044628	106.608
0.0601036	107.171
0.0758657	107.839
0.0916279	108.108
0.10739	108.577
0.123391	108.948
0.139273	109.195
0.154676	109.255
0.170439	109.544
0.186201	109.753
0.201963	109.933
0.217725	110.082
0.233487	110.242
0.249249	110.421
0.265609	110.626
0.280774	110.531
0.296536	110.661
0.312298	110.741
0.32806	110.751
0.343822	110.89
0.359584	110.95
0.375347	110.96
0.391109	110.95
0.406871	111.08
0.422633	111.09
0.438395	111.149
0.454157	111.169
0.46992	111.169
0.485682	111.169
0.501444	111.249
0.517206	111.279
0.532968	111.289
0.54873	111.289
0.564492	111.319
0.580255	111.289
0.596017	111.403
0.613043	111.821
0.626944	111.407
0.643303	111.279
0.658946	111.38
0.674717	111.49
0.691067	111.306
0.706829	111.38
0.722592	111.37
0.737876	111.169
0.753638	111.259
0.768923	111.334
0.784924	111.334
0.800925	111.416
0.816806	111.407
0.833046	111.443
0.848808	111.507
0.863973	111.389
0.879258	111.535
0.895139	111.553
0.91114	111.672
0.926903	111.736
0.942665	111.9
0.959103	112.699
0.974308	112.276
0.990071	112.934
0.991503	116.209
0.999623	113.802

File: c5ta04989j_page_2_UPC-5_des.txt
# Relative Pressure (p/p0)    Quantity Adsorbed
0.0977894	 109.09
0.100225	108.098
0.115988	108.925
0.132323	109.645
0.147512	109.937
0.16211	109.985
0.179156	109.853
0.194798	109.893
0.211552	110.286
0.226323	110.182
0.241607	110.466
0.257847	110.511
0.273609	110.611
0.289371	110.776
0.305133	110.731
0.320896	110.76
0.336658	110.87
0.367704	111.096
0.383705	111.133
0.399706	111.215
0.415707	111.306
0.431231	111.179
0.44759	111.334
0.462755	111.179
0.478039	111.343
0.494279	111.209
0.510041	111.446
0.526355	111.566
0.542117	111.566
0.557925	111.407
0.57309	112.436
0.589449	111.425
0.605606	111.515
0.620035	112.28
0.636139	111.279
0.651901	111.279
0.667663	111.279
0.683425	111.289
0.698948	111.407
0.714711	111.425
0.730473	111.407
0.746712	111.407
0.762355	111.416
0.778356	111.407
0.794357	111.416
0.809522	111.279
0.825284	111.299
0.840927	111.517
0.856478	111.616
0.87269	111.571
0.888572	111.535
0.904573	111.745
0.920335	111.754
0.936391	111.945
0.951979	112.065
0.982906	112.595

File: c5ta05481h_page_3_ZJNU-43a_ads.txt
# Relative Pressure (p/p0)    Quantity Adsorbed
0.919203	 579.318
0.881159	580.828
0.852174	580.773
0.825	580.722
0.786957	577.485
0.721739	577.361
0.685507	577.292
0.658333	580.405
0.62029	578.751
0.591304	578.696
0.558696	578.634
0.527899	578.575
0.493478	576.928
0.459058	576.862
0.431884	576.811
0.395652	575.16
0.357609	575.087
0.321377	575.019
0.306884	573.409
0.299638	573.395
0.277899	573.354
0.256159	573.312
0.203623	568.466
0.203623	568.466
0.163768	563.643
0.138406	560.431
0.123913	558.821
0.111232	555.632
0.0822464	552.413
0.0695652	549.224
0.0514493	538.114
0.0188406	509.571
0.00978261	492.148
0.00253623	446.249
0.00253623	446.249
0.00253623	419.35

File: c5ta05481h_page_3_ZJNU-43a_des.txt
# Relative Pressure (p/p0)    Quantity Adsorbed
0.946377	 580.952
0.893841	579.27
0.848551	577.602
0.808696	579.108
0.792391	577.495
0.754348	579.005
0.714493	577.347
0.678261	578.861
0.636594	580.364
0.603986	580.302
0.569565	578.654
0.527899	578.575
0.478986	576.9
0.444565	576.835
0.402899	575.173
0.364855	575.101
0.325	571.861
0.27971	571.775
0.24529	565.38
0.207246	565.308
0.169203	565.236
0.123913	561.985
0.0876812	550.841
0.0532609	539.699
0.0224638	517.489

File: c5ta05481h_page_3_ZJNU-44a_ads.txt
# Relative Pressure (p/p0)    Quantity Adsorbed
0.917391	 593.555
0.882971	593.49
0.83587	591.818
0.806884	591.763
0.772464	593.28
0.743478	593.225
0.743478	593.225
0.709058	593.16
0.65471	593.057
0.627536	589.84
0.58587	591.344
0.535145	589.665
0.491667	591.165
0.459058	591.103
0.459058	591.103
0.428261	589.462
0.363043	589.338
0.363043	589.338
0.310507	584.492
0.299638	586.053
0.268841	585.995
0.257971	582.81
0.230797	582.758
0.192754	579.521
0.163768	574.719
0.136594	574.668
0.114855	571.462
0.105797	569.862
0.0297101	544.401
0.0297101	544.401
0.065942	560.293
0.00797101	525.373
0.0188406	533.305
0.0188406	533.305
0.00978261	511.136
0.00615942	503.218
0.00434783	479.48
0.00253623	455.742

File: c5ta05481h_page_3_ZJNU-44a_des.txt
# Relative Pressure (p/p0)    Quantity Adsorbed
0.948188	 593.614
0.890217	593.504
0.850362	593.428
0.810507	593.352
0.810507	593.352
0.776087	593.287
0.730797	593.201
0.652899	596.218
0.652899	596.218
0.622101	596.159
0.694565	594.715
0.596739	592.946
0.553261	589.699
0.518841	591.216
0.480797	592.726
0.440942	587.904
0.402899	587.832
0.323188	587.68
0.27971	581.269
0.27971	581.269
0.243478	581.2
0.163768	576.302
0.163768	576.302
0.125725	574.647
0.0858696	568.242
0.0115942	517.468
0.0115942	517.468

File: c5ta05481h_page_3_ZJNU-45a_ads.txt
# Relative Pressure (p/p0)    Quantity Adsorbed
0.937319	 571.441
0.90471	566.632
0.87029	568.149
0.837681	568.088
0.805072	566.443
0.768841	567.957
0.741667	566.323
0.709058	567.843
0.622101	569.26
0.584058	567.606
0.558696	567.558
0.522464	564.324
0.491667	569.013
0.462681	567.375
0.424638	565.721
0.392029	565.659
0.330435	565.542
0.308696	562.336
0.301449	562.323
0.263406	560.668
0.230797	560.606
0.198188	560.544
0.138406	554.102
0.113043	549.307
0.0985507	546.114
0.065942	536.559
0.0333333	519.092
0.017029	511.15
0.00615942	488.977
0.00253623	474.73
0.00253623	463.654
0.00253623	432.008

File: c5ta05481h_page_3_ZJNU-45a_des.txt
# Relative Pressure (p/p0)    Quantity Adsorbed
0.948188	 568.297
0.888406	568.184
0.848551	569.69
0.812319	568.039
0.774275	571.132
0.73442	567.891
0.698188	567.823
0.638406	567.709
0.593116	567.623
0.542391	569.109
0.522464	567.489
0.480797	568.992
0.440942	567.334
0.402899	568.844
0.363043	565.604
0.323188	567.111
0.285145	562.292
0.24529	562.216
0.203623	560.554
0.163768	554.15
0.129348	550.92
0.0876812	544.512
0.0478261	531.778
0.00615942	498.471

File: c5ta09507g-si_page_6_MoCx@C-1_ads.txt
# Relative Pressure (p/p0)    Quantity Adsorbed
0.00681035	 11.9605
0.0207541	12.372
0.0302957	13.3488
0.0453884	13.6637
0.0644488	14.3145
0.0797492	14.5082
0.0982696	14.9412
0.116094	15.256
0.131225	15.705
0.15123	15.942
0.165656	15.9817
0.182378	16.1905
0.218208	16.6118
0.235422	16.9343
0.25263	17.3428
0.265968	17.1349
0.311518	17.5319
0.344868	17.9252
0.359631	18.0402
0.377937	18.2869
0.388114	18.4105
0.412375	18.8197
0.429592	19.1086
0.446511	18.9973
0.464058	19.2861
0.481274	19.5824
0.498508	19.6583
0.515722	19.9919
0.532933	20.3518
0.549557	20.4384
0.567372	20.8771
0.58458	21.2819
0.600592	21.3944
0.619004	21.9831
0.636857	22.4866
0.65205	22.627
0.67061	23.4231
0.688883	24.0715
0.703548	24.3329
0.722173	25.403
0.739611	26.1984
0.752845	26.6098
0.767426	27.8943
0.782239	28.8563
0.79514	29.7732
0.806842	30.3286
0.815361	31.7
0.826635	32.2739
0.835139	33.7364
0.84839	34.6256
0.856098	36.2429
0.868262	38.6311
0.862281	37.3263
0.8802	39.5419
0.885728	40.9287
0.894572	42.8425
0.890142	41.7429
0.904847	44.0535
0.925327	46.0218
0.943571	48.1873
0.954973	48.6301
0.965091	49.9772
0.981491	51.4636

File: c5ta09507g-si_page_6_MoCx@C-1_des.txt
# Relative Pressure (p/p0)    Quantity Adsorbed
0.990264	 52.4926
0.968748	51.3805
0.931425	49.4191
0.896271	47.9203
0.896271	47.9203
0.872094	46.9984
0.872094	46.9984
0.847916	46.0765
0.823748	45.0389
0.823748	45.0389
0.797394	43.7701
0.753504	41.2312
0.700841	38.1149
0.64816	35.2302
0.599888	32.3447
0.547152	30.1544
0.50102	28.0788
0.457571	19.9842
0.398148	18.7209
0.329896	17.5749
0.277013	17.2365
0.25279	16.8933
0.202111	16.5545
0.140437	15.8704

File: c5ta10401g_page_6_Zr-L5_ads.txt
# Relative Pressure (p/p0)    Quantity Adsorbed
0.0260313	 300.983
0.0503943	313.652
0.0767365	318.738
0.101253	321.935
0.126675	324.878
0.152105	329.11
0.177516	330.151
0.201118	332.166
0.22654	335.042
0.25194	334.266
0.277369	338.286
0.302774	338.481
0.327293	342.052
0.352699	342.31
0.377909	344.698
0.402631	347.298
0.427895	349.084
0.45255	350.069
0.477969	352.563
0.502483	355.295
0.527206	357.942
0.553322	360.283
0.577908	361.288
0.603244	363.524
0.627756	366.062
0.653166	366.952
0.678283	369.328
0.703092	370.971
0.728753	372.456
0.752871	373.773
0.77752	375.717
0.802046	380.459
0.8276	382.1
0.852874	383.599
0.877383	385.581
0.903745	394.058
0.927489	396.481
0.952771	399.205
0.978199	403.197
0.998171	405.121

File: c5ta10401g_page_6_Zr-L5_des.txt
# Relative Pressure (p/p0)    Quantity Adsorbed
1.00239	 407.22
0.981113	407.22
0.952727	404.332
0.929052	398.556
0.907742	392.78
0.879373	392.78
0.858096	392.78
0.829693	387.004
0.803689	387.004
0.777667	384.116
0.751662	384.116
0.730386	384.116
0.704381	384.116
0.680723	381.227
0.654701	378.339
0.628679	375.451
0.602675	375.451
0.579034	375.451
0.555359	369.675
0.534083	369.675
0.505697	366.787
0.477294	361.011
0.451289	361.011
0.427648	361.011
0.401627	358.123
0.375588	352.347
0.349583	352.347
0.328289	349.458
0.304649	349.458
0.280974	343.682
0.252605	343.682
0.228947	340.794
0.205273	335.018
0.179268	335.018
0.150882	332.13
0.131935	326.354
0.10355	323.466
0.0751295	314.801
0.0514888	314.801
0.0277799	303.249
0.00878204	288.809
0.00847479	236.823
0.00815048	181.949
0.00539383	115.523

File: c5ta10401g_page_6_Zr-L6_ads.txt
# Relative Pressure (p/p0)    Quantity Adsorbed
0.00162726	 321.521
0.00122237	283.717
0.00151822	251.899
0.000864837	223.223
0.00108173	194.129
0.00128114	162.076
0.00018011	132.954
0.000176662	106.784
-0.000427976	81.2379
0.000178075	49.4539
-0.000715767	17.192
0.00429402	480.247
0.0040007	446.775
0.00385596	422.285
0.00371393	398.254
0.00356919	373.764
0.00389591	352.286
0.00713518	516.577
0.0112678	542.699
0.0216906	566.937
0.0445846	584.379
0.0614782	592.468
0.080212	599.762
0.102935	606.477
0.128376	612.747
0.153808	617.247
0.177422	621.228
0.198819	625.516
0.21806	627.412
0.236341	628.84
0.255045	629.332
0.279107	632.411
0.304537	636.723
0.328149	640.438
0.353567	642.614
0.378985	644.912
0.400369	646.882
0.419608	648.376
0.438292	649.814
0.456862	649.9
0.47884	653.304
0.500606	651.71
0.518975	655.281
0.537381	656.643
0.556891	657.068
0.578677	658.871
0.600066	661.686
0.618825	662.942
0.637232	664.547
0.656235	662.831
0.678522	665.762
0.699906	667.64
0.718669	669.753
0.737421	669.816
0.756112	668.238
0.780038	671.77
0.805591	673.282
0.829195	675.606
0.850579	677.549
0.869822	679.827
0.887651	679.883
0.906403	678.449
0.929275	681.308
0.951934	682.852
0.970631	685.816
0.987696	687.458
1.00349	690.609

File: c5ta10401g_page_6_Zr-L6_des.txt
# Relative Pressure (p/p0)    Quantity Adsorbed
1.0017	 690.253
0.975694	690.253
0.956914	690.574
0.930623	686.562
0.907639	686.562
0.881372	686.562
0.830443	680.546
0.830443	680.546
0.807447	678.54
0.807447	678.54
0.856722	682.551
0.782822	678.54
0.754889	674.529
0.72861	672.523
0.707255	670.517
0.680988	670.517
0.65798	666.506
0.630071	666.506
0.605422	662.495
0.579154	662.495
0.554505	658.484
0.554505	658.484
0.528238	658.484
0.478939	650.461
0.503588	654.473
0.503588	654.473
0.455967	652.467
0.429688	650.461
0.400113	646.45
0.380401	644.444
0.352491	644.444
0.324559	640.433
0.303216	640.433
0.278567	636.422
0.255583	636.422
0.227662	634.416
0.204643	628.4
0.180005	626.394
0.15369	618.371
0.130694	616.366
0.10275	610.349
0.0797182	602.327
0.0500844	588.287
0.0237459	576.254

File: c5ta10401g_page_6_Zr-L7_ads.txt
# Relative Pressure (p/p0)    Quantity Adsorbed
0.00542159	 241.989
0.00747529	347.502
0.00683285	311.904
0.00668853	287.487
0.00748126	268.098
0.0113241	442.402
0.0167112	566.244
0.0134072	479.56
0.0179538	530.47
0.0132475	373.821
0.0260374	593.314
0.0371469	641.594
0.05471	651.551
0.0759207	666.845
0.0980936	680.583
0.116125	689.129
0.134062	692.089
0.155195	698.493
0.18012	709.422
0.205169	710.578
0.228714	723.329
0.250193	720.925
0.269385	727.35
0.287388	728.691
0.306914	731.841
0.328568	736.809
0.354142	739.932
0.379575	744.755
0.405227	745.602
0.430279	750.461
0.454584	751.749
0.476419	755.447
0.495597	759.47
0.510975	759.419
0.531931	763.034
0.555719	765.801
0.579559	767.238
0.604735	769.437
0.630405	773.381
0.655582	775.757
0.68103	783.099
0.704631	784.918
0.726433	789.406
0.746203	791.155
0.762344	793.064
0.782735	797.555
0.804516	798.5
0.825897	799.87
0.84466	801.981
0.863421	803.614
0.882576	803.651
0.906183	806.619
0.929929	809.289
0.951183	812.901
0.971352	814.05
0.988464	817.406
1.00629	819

File: c5ta10401g_page_6_Zr-L7_des.txt
# Relative Pressure (p/p0)    Quantity Adsorbed
1.00038	 822.944
0.980657	818.933
0.957649	814.922
0.932988	808.905
0.905079	808.905
0.882071	804.894
0.859087	804.894
0.831143	798.877
0.804875	798.877
0.781867	794.866
0.753947	792.86
0.732592	790.854
0.706325	790.854
0.683329	788.849
0.657026	782.832
0.630759	782.832
0.606109	778.821
0.578188	776.815
0.558464	772.804
0.530531	768.793
0.504252	766.787
0.481256	764.781
0.45167	758.765
0.430316	756.759
0.405666	752.748
0.381005	746.731
0.356379	746.731
0.330065	738.708
0.303797	738.708
0.279136	732.692
0.256128	728.68
0.231491	726.675
0.203534	718.652
0.178873	712.635
0.15257	706.619
0.131168	696.59
0.103212	688.568
0.080145	674.529
0.0571017	664.501
0.0537946	660.489
0.0255773	608.343