Folder: Experimental-Data-Digitalization/data/nitrogen-adsorption-isotherms (part 10)

File: ja512137t-si_page_14_CPM-34_des.txt
# Relative Pressure (p/p0)    Quantity Adsorbed
0.0050983	 278.069
0.0113512	278.452
0.0168919	287.77
0.0260982	289.762
0.0365987	295.525
0.0467961	296.931
0.0588513	301.06
0.0679488	301.488
0.0789499	304.303
0.0857608	304.967
0.109612	307.802
0.118826	308.58
0.129685	309.487
0.141147	308.578
0.147473	307.86
0.163253	311.625
0.174114	312.176
0.184975	312.727
0.206282	312.509
0.216571	314.251
0.227433	314.7
0.236816	314.644
0.250325	312.963
0.26397	315.876
0.274832	316.223
0.284708	316.374
0.308524	316.006
0.317789	317.358
0.343658	317.376
0.353154	317.52
0.3647	317.989
0.375562	318.286
0.384735	317.98
0.397798	316.081
0.414076	319.134
0.42494	319.201
0.435411	318.966
0.446645	323.153
0.463366	324.455
0.484084	338.603
0.490483	342.111
0.514158	346.933
0.546256	347.171
0.55712	347.111
0.565515	347.171
0.595634	347.985
0.606498	348.027
0.615881	348.006
0.645017	348.137
0.65588	348.433
0.665755	348.646
0.697357	349.159
0.70822	349.43
0.747719	350.839
0.758579	351.517
0.76944	352.017
0.779313	352.615
0.810892	357.067
0.821741	359.578
0.83259	362.138
0.841467	364.14
0.868076	373.897
0.897661	381.346
0.908521	382.024
0.916914	382.414
0.943875	379.231
0.95019	378.449
0.973699	383.498
0.982089	384.287
-0.00385536	254.514
-0.00797894	189.235
-0.00797894	189.235
-0.000918749	141.891
-0.000772304	117.574
-0.000710643	107.335
-0.000672105	100.936
-0.0027917	77.8948
-0.000348385	47.1818
-0.000255893	31.8236
-9.40331e-05	4.94668
-9.40331e-05	4.94668

File: ja512137t-si_page_14_CPM-35_ads.txt
# Relative Pressure (p/p0)    Quantity Adsorbed
0.0075981	 182.572
0.00376653	171.204
0.00375613	145.596
0.015742	195.137
0.0143819	185.213
0.0257463	195.135
0.0354629	201.671
0.0359421	196.805
0.0463119	202.405
0.0563406	205.372
0.0655598	208.973
0.0696497	208.567
0.079032	211.563
0.0904657	212.534
0.101132	212.69
0.113452	216.876
0.124311	217.809
0.133689	218.701
0.149402	217.186
0.162811	221.074
0.17367	221.93
0.18453	222.557
0.190461	221.727
0.204514	225.422
0.211929	224.034
0.222047	225.108
0.232907	225.837
0.244328	224.422
0.254071	228.464
0.253162	224.459
0.265489	227.643
0.276351	228.092
0.287214	228.245
0.299192	227.794
0.302995	231.788
0.311458	229.656
0.320289	230.322
0.342703	231.28
0.352446	231.596
0.364225	232.883
0.375086	233.307
0.385952	233.069
0.396819	232.602
0.402719	237.026
0.408044	234.27
0.41853	235.638
0.42939	236.367
0.440362	234.957
0.463953	237.285
0.474814	237.76
0.484566	238.026
0.497156	238.448
0.507401	238.831
0.518258	240.066
0.529119	240.617
0.540093	240.673
0.550186	241.142
0.563676	242.552
0.574537	243.154
0.584409	243.82
0.596878	243.936
0.606754	244.161
0.617977	246.071
0.628837	246.825
0.639807	247.419
0.6499	247.938
0.663388	249.702
0.674246	250.66
0.684117	251.654
0.696625	252.17
0.705418	252.464
0.741651	259.516
0.75221	260.982
0.763053	264.536
0.7739	267.478
0.784746	270.497
0.795725	273.294
0.802516	271.83
0.808388	280.889
0.817739	286.115
0.841076	300.27
0.850694	308.141
0.857567	314.788
0.864441	321.396
0.870824	327.489
0.876715	333.329
0.883591	339.601
0.888987	345.65
0.895425	348.836
0.902741	357.837
0.909618	363.845
0.916495	369.973
0.923372	376.1
0.930249	382.228
0.937267	388.276
0.94536	396.097
0.952428	398.592
0.962702	405.387
0.983797	415.005
0.987619	422.777
-0.00523502	108.608
-0.00736233	86.8468
-0.00266838	57.4171
-0.000217355	25.4243
-7.86178e-05	2.38698

File: ja512137t-si_page_14_CPM-35_des.txt
# Relative Pressure (p/p0)    Quantity Adsorbed
0.00472032	 182.296
0.00031954	60.2306
0.00311679	169.757
0.00425273	145.138
0.00938828	194.395
0.0045584	176.383
0.0124069	185.164
0.0185929	195.05
0.0290987	195.225
0.0333998	201.923
0.0410615	203.648
0.0434335	199.28
0.0527368	204.301
0.0627481	208.384
0.0582225	203.612
0.0742157	209.844
0.0817089	212.441
0.0927366	212.646
0.1033	213.421
0.11444	216.903
0.125298	217.861
0.136159	218.463
0.14703	217.36
0.158209	219.78
0.168733	221.592
0.179593	222.372
0.190362	221.923
0.201406	222.128
0.203666	226.729
0.212942	224.405
0.223034	225.186
0.233894	225.839
0.244767	224.38
0.251152	230.163
0.255822	225.575
0.266476	227.695
0.277338	228.145
0.288203	228.085
0.299317	227.669
0.302247	233.023
0.310024	229.122
0.320783	230.183
0.332974	228.663
0.342705	230.944
0.352445	231.689
0.364224	232.909
0.375086	233.332
0.385952	233.095
0.397066	232.592
0.401138	237.051
0.408002	234.5
0.41853	235.663
0.42939	236.342
0.440262	235.163
0.451571	243.328
0.45894	249.686
0.466783	259.402
0.475642	264.265
0.483016	269.894
0.490878	276.483
0.496776	281.11
0.511074	284.91
0.518912	295.481
0.529739	301.68
0.538598	306.662
0.564232	314.174
0.57509	315.336
0.585948	316.421
0.59352	316.382
0.608633	321.582
0.619501	320.925
0.630356	322.57
0.6401	324.045
0.66883	330.033
0.674748	331.339
0.697414	339.77
0.708248	344.774
0.719082	349.879
0.729916	354.908
0.739272	359.285
0.760925	371.941
0.770269	378.318
0.779121	384.488
0.78699	389.904
0.80612	399.789
0.815553	403.049
0.826395	406.857
0.836743	410.511
0.863875	415.463
0.869798	415.879
0.895471	417.013
0.906333	417.386
0.915714	417.629
0.945833	418.464
0.952745	418.806
0.975494	413.472
0.9794	420.733
0.984375	414.736
0.98828	422.29
-0.000602737	89.4169
-0.000602737	89.4169
-0.00750106	109.884
-0.000163402	16.4653
-0.000163402	16.4653

File: ja512137t_page_3_CPM-33a_ads.txt
# Relative Pressure (p/p0)    Quantity Adsorbed
-0.0067427	 252.481
-0.00716976	238.565
-0.0123156	224.567
-0.00845944	216.116
-0.00703934	204.199
-0.00661453	191.519
-0.0124481	182.814
-0.00603722	174.286
-0.00682466	161.224
-0.00652413	146.627
-0.0123313	133.617
-0.0044606	127.224
-0.00402337	114.172
-0.00356596	100.519
-0.0109748	93.127
-0.00410058	83.2342
-0.00281126	68.8491
-0.00329298	54.2794
-0.00152508	39.5984
-0.00950052	33.8829
-0.00249368	22.802
0.000770893	6.22464
-0.00404226	267.1
0.0122864	274.873
0.0451351	278.26
0.0789447	282.179
0.112803	283.655
0.145989	285.584
0.180087	286.404
0.214697	287.046
0.247678	287.663
0.280845	288.554
0.314252	288.752
0.348427	289.483
0.382612	289.893
0.416821	289.585
0.44948	289.863
0.48185	291.13
0.516049	291.119
0.551443	291.185
0.584172	291.7
0.616839	291.742
0.651564	291.258
0.685233	291.852
0.719404	292.684
0.752589	292.464
0.785986	293.567
0.820592	294.892
0.853083	296.475
0.887174	297.529
0.917763	298.623
0.942012	306.137

File: ja512137t_page_3_CPM-33a_des.txt
# Relative Pressure (p/p0)    Quantity Adsorbed
0.940035	 299.834
0.918995	302.866
0.891081	302.783
0.873634	302.731
0.845719	302.648
0.835321	300.554
0.821363	300.513
0.807406	300.471
0.796973	299.409
0.782981	300.399
0.762079	299.305
0.737689	298.202
0.720276	297.119
0.706319	297.077
0.681859	298.036
0.646966	297.932
0.622541	297.86
0.612073	297.828
0.591137	297.766
0.57718	297.725
0.563257	296.652
0.542321	296.59
0.521385	296.528
0.510917	296.497
0.49347	296.445
0.46559	295.331
0.444689	294.237
0.430732	294.196
0.413285	294.144
0.385371	294.061
0.371448	292.988
0.347023	292.916
0.336555	292.885
0.305151	292.791
0.270257	292.688
0.22842	291.532
0.238888	291.563
0.203995	291.46
0.186548	291.408
0.169102	291.356
0.158668	290.294
0.1482	290.263
0.144711	290.252
0.113411	287.065
0.0715733	285.909
0.0506719	284.816
0.0298396	281.66
0.0057598	271.275
-0.0011152	268.161
-0.00450088	265.056
-0.00356809	237.213
-0.0204965	221.692

File: ja512137t_page_3_CPM-33b_ads.txt
# Relative Pressure (p/p0)    Quantity Adsorbed
-0.00420687	 227.69
-0.00562081	212.644
-0.00528197	197.451
-0.00459664	182.072
-0.00426248	167.019
-0.00357512	151.58
-0.00324298	136.587
-0.00255731	121.199
-0.002223	106.141
-0.00153191	90.5905
-0.00120019	75.6097
-0.000511151	60.1207
-0.000182109	45.22
0.000314218	30.4047
0.000990515	15.296
0.00812179	245.299
0.0404493	249.357
0.0740408	252.254
0.106527	253.873
0.13783	256.512
0.170406	255.42
0.214794	256.005
0.266823	257.065
0.295915	257.151
0.346439	257.4
0.381144	257.525
0.409215	257.609
0.450545	258.059
0.486582	259.075
0.516907	257.888
0.551586	258.799
0.591392	259.016
0.626244	258.585
0.654194	258.453
0.692459	259.001
0.727163	259.136
0.751811	260.858
0.79038	261.436
0.839383	261.38
0.891458	261.051
0.920774	260.998
0.958845	260.78

File: ja512137t_page_3_CPM-33b_des.txt
# Relative Pressure (p/p0)    Quantity Adsorbed
0.98315	 262.833
0.944837	260.657
0.916888	261.605
0.868037	261.46
0.815663	262.336
0.77728	262.222
0.714403	264.098
0.669077	262.932
0.616702	263.808
0.571341	263.673
0.519001	263.517
0.470151	263.372
0.424997	257.05
0.372622	257.926
0.316793	257.76
0.274921	257.636
0.243517	257.542
0.198191	256.376
0.149375	255.2
0.100559	254.024
0.0518465	249.754
0.0309797	247.629
0.00313417	245.483
0.00106131	203.192
-0.000735176	152.65

File: ja512437u-si_page_9_Cd2(TTFTB)_ads.txt
# Relative Pressure (p/p0)    Quantity Adsorbed
0.918473	 134.015
0.818452	135.473
0.71842	137.626
0.618409	138.39
0.524301	137.761
0.421358	137.832
0.300749	139.305
0.203679	140.067
0.103688	139.442
0.0507767	137.395
0.039022	136.709
0.0272981	133.939
0.0214259	133.249
0.0097019	130.479
0.00680154	127.704
0.00680154	127.704
0.00397267	120.067
0.00113359	113.124
0.00125614	104.791
0.00141954	93.6795
0.00156252	83.9571
0.00175655	70.7626
0.00188932	61.7347
0.00201187	53.4013
-0.000755727	41.5976
0.00529009	30.4823
0.00250207	20.0676
0.00264504	10.3453

File: ja512437u-si_page_9_Co2(TTFTB)_ads.txt
# Relative Pressure (p/p0)    Quantity Adsorbed
0.8914	 175.006
0.800233	174.375
0.694339	175.143
0.600231	174.514
0.50022	175.278
0.394346	174.657
0.303189	173.331
0.203209	172.012
0.103249	169.303
0.0503375	167.257
0.0268487	164.495
0.015135	161.031
0.00931382	156.868
0.000571901	151.319
0.000725089	140.902
-0.00203229	128.404
0.00115402	111.735
0.00161358	80.4849
0.00498371	51.3159
0.00264504	10.3453

File: ja512437u-si_page_9_Mn2(TTFTB)_ads.txt
# Relative Pressure (p/p0)    Quantity Adsorbed
0.918198	 152.765
0.803491	152.845
0.697617	152.224
0.618174	154.362
0.524096	151.65
0.418182	153.807
0.309368	153.188
0.203515	151.178
0.100593	149.861
0.0623577	149.887
0.0270938	147.828
0.0153903	143.67
0.0036663	140.9
0.000868064	131.18
0.00396246	120.761
-0.00176677	110.348
-0.004565	100.628
-0.0044016	89.5168
-0.00132763	80.4869
-0.00115402	68.6813
-0.00101104	58.9589
-0.000908915	52.0144
-0.000735302	40.2087
-0.000582114	29.792
-0.000439138	20.0696
0.00265526	9.65083

File: ja808995d-si_page_17_1_ads.txt
# Relative Pressure (p/p0)    Quantity Adsorbed
0.960948	 427.386
1.00278	431.535
0.903057	425.311
0.809782	421.162
0.858027	423.237
0.835519	423.237
0.758322	419.087
0.735787	414.938
0.706848	414.938
0.658617	414.938
0.632893	414.938
0.607143	410.788
0.555696	410.788
0.536404	410.788
0.507465	410.788
0.488172	410.788
0.452802	410.788
0.353084	404.564
0.304812	398.34
0.253379	400.415
0.201892	394.191
0.156836	387.967
0.0763566	373.444
0.0634414	365.145
0.0440021	342.324
0.0243226	282.158
0.0111806	238.589
0.00765834	190.871
0.00109405	170.124
-0.00242825	122.407
0.000373577	58.0913

File: ja808995d-si_page_17_1_des.txt
# Relative Pressure (p/p0)    Quantity Adsorbed
0.957732	 427.386
0.886979	425.311
0.832304	423.237
0.787248	417.012
0.739029	419.087
0.687583	419.087
0.636109	414.938
0.488172	410.788
0.436712	408.714
0.340209	402.49
0.288749	400.415
0.237262	394.191
0.189003	390.041
0.13753	385.892
0.0924737	379.668
0.0537284	354.772
0.0308735	300.83
0.00432282	172.199

File: ja808995d-si_page_17_1a_ads.txt
# Relative Pressure (p/p0)    Quantity Adsorbed
0.996304	 425.311
0.95453	429.461
0.90307	427.386
0.854838	427.386
0.800123	419.087
0.761524	417.012
0.706862	417.012
0.648971	414.938
0.603928	410.788
0.552481	410.788
0.500981	402.49
0.452709	396.266
0.407666	392.116
0.352991	390.041
0.298302	385.892
0.246815	379.668
0.201758	373.444
0.163147	369.295
0.082654	352.697
0.0567704	327.801
0.0437352	300.83
0.0307267	278.008
0.0241224	251.037
0.0143961	238.589
0.00773839	203.32
0.000827207	128.631
-0.00281517	62.2407

File: ja808995d-si_page_17_1a_des.txt
# Relative Pressure (p/p0)    Quantity Adsorbed
0.880549	 425.311
0.880549	425.311
0.941655	427.386
0.838721	421.162
0.787274	421.162
0.742272	423.237
0.693987	414.938
0.64254	414.938
0.597524	414.938
0.539619	410.788
0.488172	410.788
0.446318	402.49
0.394831	396.266
0.343358	392.116
0.295086	385.892
0.246828	381.743
0.192126	375.519
0.143854	369.295
0.092327	356.846
0.0438153	313.278
0.0306467	265.56
0.0110472	217.842
0.00121413	188.797
0.00113407	176.349
0.00065376	101.66

File: ja808995d-si_page_17_2_ads.txt
# Relative Pressure (p/p0)    Quantity Adsorbed
0.99537	 280.083
0.956785	280.083
0.914931	271.784
0.860269	271.784
0.812037	271.784
0.760564	267.635
0.709103	265.56
0.660845	261.411
0.606169	259.336
0.554709	257.261
0.503262	257.261
0.454991	251.037
0.406759	251.037
0.358501	246.888
0.310229	240.664
0.255554	238.589
0.197649	234.44
0.15262	232.365
0.104335	224.066
0.0624808	215.768
0.0430415	192.946
0.0202532	149.378
-0.006124	47.7178
-0.00317541	6.22407

File: ja808995d-si_page_17_2_des.txt
# Relative Pressure (p/p0)    Quantity Adsorbed
0.940695	 278.008
0.889234	275.934
0.837747	269.71
0.783098	271.784
0.741271	267.635
0.689811	265.56
0.638364	265.56
0.593308	259.336
0.541847	257.261
0.4904	257.261
0.438927	253.112
0.390682	251.037
0.33598	244.813
0.29095	242.739
0.239476	238.589
0.18803	238.589
0.139745	230.29
0.0947152	228.216
0.05605	215.768
0.0302064	197.095
0.0170511	151.452
-0.00246828	116.183

File: ja808995d-si_page_17_2a_ads.txt
# Relative Pressure (p/p0)    Quantity Adsorbed
0.99533	 273.859
0.905258	267.635
0.905258	267.635
0.959934	269.71
0.853798	265.56
0.79588	259.336
0.757295	259.336
0.712265	257.261
0.654361	253.112
0.606129	253.112
0.557884	251.037
0.512855	248.963
0.451735	244.813
0.400275	242.739
0.355232	238.589
0.307001	238.589
0.249096	234.44
0.210498	232.365
0.159011	226.141
0.104321	221.992
0.0753559	217.842
0.0462836	197.095
0.033235	168.05
0.0202532	149.378
0.00716468	114.108
0.000480314	74.6888
-0.00300196	33.195

File: ja808995d-si_page_17_2a_des.txt
# Relative Pressure (p/p0)    Quantity Adsorbed
0.943843	 267.635
0.892396	267.635
0.840923	263.485
0.789462	261.411
0.744473	265.56
0.689771	259.336
0.641486	251.037
0.583608	251.037
0.538565	246.888
0.487092	242.739
0.43886	242.739
0.397059	242.739
0.339155	238.589
0.294125	236.515
0.242652	232.365
0.194394	228.216
0.146135	224.066
0.104308	219.917
0.0527545	203.32
0.0300596	174.274
0.0136889	128.631
0.000680445	105.809

File: ja808995d-si_page_20_1_ads.txt
# Relative Pressure (p/p0)    Quantity Adsorbed
1.00041	 426.329
0.958474	425.344
0.914442	425.561
0.855733	422.275
0.807508	420.128
0.761379	417.972
0.713154	418.21
0.660735	417.277
0.610413	415.141
0.555898	410.641
0.511866	412.051
0.459447	409.926
0.413319	407.769
0.356706	405.664
0.308481	403.518
0.253965	400.21
0.20574	394.487
0.157515	388.763
0.0778382	377.234
0.0568706	364.221
0.0484836	343.992
0.0338064	321.409
0.0275161	286.861
0.0149356	242.805
0.00235507	186.825
0.00235507	121.244
-0.00393519	59.2714

File: ja808995d-si_page_20_1_des.txt
# Relative Pressure (p/p0)    Quantity Adsorbed
0.937507	 421.87
0.889281	420.916
0.836863	419.983
0.78025	416.686
0.738315	415.701
0.692187	415.929
0.637671	415.006
0.589446	411.668
0.539124	410.724
0.488802	409.78
0.434286	408.858
0.394448	406.67
0.344126	402.149
0.293804	400.013
0.243482	399.07
0.184773	394.591
0.142837	388.836
0.0988057	378.322
0.0484836	355.916
0.0275161	305.939
0.00654858	223.769
-0.00183843	172.538

File: ja808995d-si_page_20_3_ads.txt
# Relative Pressure (p/p0)    Quantity Adsorbed
0.998313	 369.105
0.960571	363.329
0.910249	360.001
0.910249	360.001
0.859927	355.48
0.809605	354.537
0.713154	349.052
0.713154	349.052
0.654445	348.15
0.616704	347.144
0.560091	343.847
0.509769	339.326
0.463641	334.785
0.358803	330.534
0.358803	330.534
0.409125	333.862
0.314771	329.559
0.253965	325.09
0.209934	320.538
0.155418	316.038
0.109289	306.727
0.0778382	303.306
0.0568706	284.331
0.0400966	260.567
0.0317096	241.53
0.0254194	216.521
0.0191291	186.742
0.00864533	152.215
-0.00393519	92.6581
-0.00393519	22.3075

File: ja808995d-si_page_20_3_des.txt
# Relative Pressure (p/p0)    Quantity Adsorbed
0.939603	 361.048
0.887185	360.115
0.836863	356.787
0.788637	355.833
0.742509	352.484
0.692187	352.733
0.637671	349.425
0.587349	348.482
0.54122	346.325
0.486705	344.21
0.434286	338.507
0.388158	336.35
0.331545	331.861
0.293804	328.47
0.243482	327.527
0.191063	324.209
0.142837	317.293
0.0967089	307.982
0.0442901	271.277
0.0296129	230.809
0.0107421	167.706
-0.00183843	136.766

File: ja808995d-si_page_20_4_ads.txt
# Relative Pressure (p/p0)    Quantity Adsorbed
0.994119	 388.203
0.960571	380.023
0.903959	375.533
0.855733	373.387
0.809605	368.845
0.759283	369.094
0.662832	361.225
0.662832	361.225
0.61251	360.281
0.560091	353.386
0.505576	352.463
0.45735	347.932
0.407028	344.604
0.365093	344.811
0.310578	339.119
0.258159	335.801
0.207837	331.28
0.157515	323.182
0.109289	318.651
0.0694512	309.309
0.0589674	297.437
0.0421934	273.672
0.0338064	260.598
0.0212258	204.618
0.0128388	149.81
-0.00393519	87.8886

File: ja808995d-si_page_20_4_des.txt
# Relative Pressure (p/p0)    Quantity Adsorbed
0.937507	 380.137
0.887185	376.808
0.834766	373.491
0.784444	371.355
0.736218	366.824
0.6838	367.083
0.635574	360.167
0.583156	360.426
0.537027	357.077
0.492995	353.718
0.434286	350.431
0.383964	345.91
0.335739	342.571
0.28332	339.254
0.241385	335.884
0.186869	333.769
0.132354	325.691
0.0904187	316.36
0.0359031	264.164

File: ja809985t_page_2_UMCM-2_ads.txt
# Relative Pressure (p/p0)    Quantity Adsorbed
0.904504	 1481.58
0.855647	1477.23
0.806789	1472.88
0.763088	1473.08
0.706519	1468.77
0.652535	1469.02
0.606249	1464.66
0.557392	1460.31
0.503364	1446.84
0.457063	1437.91
0.408206	1433.56
0.354207	1429.24
0.300194	1420.34
0.26159	1406.8
0.205006	1397.92
0.156061	1366.14
0.101563	1206.39
0.0937629	1179
0.0858893	1128.75
0.0702597	1064.82
0.0624302	1028.29
0.0546301	1000.89
0.0415859	941.524
0.0362683	886.691
0.0231506	804.466
0.0147482	589.647
0.00938657	521.1
0.00915154	447.958
0.00634585	374.828
0.00352547	297.127
0.000793231	246.854
0.000675715	210.283
0.00054351	169.14
0.000411305	127.998
0.000352547	109.713
0.000293789	91.4272
0.000220342	68.5704
0.000176274	54.8563
0.000117516	36.5709
8.81368e-05	27.4282

File: ja809985t_page_2_UMCM-2_des.txt
# Relative Pressure (p/p0)    Quantity Adsorbed
0.963644	 1485.88
0.932796	1486.02
0.878797	1481.7
0.82994	1477.35
0.781068	1468.43
0.729655	1468.66
0.680813	1468.89
0.62937	1459.98
0.577972	1464.79
0.534226	1451.27
0.480213	1442.38
0.42623	1442.62
0.382499	1433.68
0.3259	1420.22
0.279585	1406.72
0.228142	1397.81
0.179256	1384.32
0.130207	1320.55
0.0780598	1092.21
0.0232828	845.608

File: ja903726m-si_page_9_MIL-125_ads.txt
# Relative Pressure (p/p0)    Quantity Adsorbed
0.30166	 444.163
0.25051	443.942
0.201079	438.533
0.164295	437.075
0.184412	438.461
0.14533	436.993
0.140157	436.97
0.124634	431.708
0.103368	430.318
0.0843996	427.638
0.0642801	423.655
0.0286328	410.514
0.010221	392.252

File: ja4015666_page_3_p11-16-1_ads.txt
# Relative Pressure (p/p0)    Quantity Adsorbed
0.929961	 263.833
0.90296	263.006
0.889463	262.164
0.872107	261.327
0.848959	261.351
0.825811	261.374
0.80652	261.394
0.78723	261.414
0.771798	261.43
0.746721	261.456
0.723572	261.479
0.704282	261.499
0.68885	261.515
0.66956	261.535
0.648335	262.412
0.625186	262.436
0.609754	262.451
0.588546	260.763
0.567321	261.64
0.54996	261.658
0.53067	261.677
0.503663	261.705
0.488231	261.721
0.488231	261.721
0.468941	261.741
0.445793	261.764
0.430355	262.636
0.405283	261.806
0.385993	261.826
0.366703	261.846
0.35127	261.861
0.328128	261.03
0.308838	261.05
0.287618	261.071
0.272192	260.232
0.247114	260.258
0.229753	260.276
0.210474	258.585
0.19119	257.749
0.168047	256.918
0.152615	256.933
0.131395	256.955
0.114046	255.262
0.094761	254.427
0.073553	252.738
0.050416	251.051
0.0388532	249.352
0.031154	246.794
0.0215315	243.383
0.00998002	239.973
0.00423254	233.992
0.00435134	216.03
0.000612084	198.072
0.000747851	177.544
0.000855333	161.292
0.00291447	141.618
0.00305024	121.09
0.00125132	101.419
0.00138709	80.8912
0.00152286	60.3632
0.00165297	40.6905
0.00178308	21.0178

File: ja4015666_page_3_p11-16-1_des.txt
# Relative Pressure (p/p0)    Quantity Adsorbed
0.949251	 263.814
0.929944	266.399
0.891369	265.584
0.891369	265.584
0.916447	265.558
0.866298	264.754
0.85086	265.625
0.827717	264.794
0.808427	264.814
0.789137	264.833
0.765988	264.857
0.750556	264.873
0.731266	264.893
0.710047	264.915
0.688822	265.792
0.67146	265.809
0.648318	264.978
0.629027	264.998
0.609737	265.017
0.590447	265.037
0.567299	265.061
0.551866	265.077
0.528718	265.101
0.507499	265.122
0.488209	265.142
0.468918	265.162
0.451557	265.18
0.42648	265.206
0.40719	265.225
0.389828	265.243
0.366686	264.412
0.345472	263.578
0.33004	263.594
0.312679	263.612
0.293388	263.632
0.268311	263.657
0.249021	263.677
0.227801	263.699
0.210446	262.861
0.193085	262.879
0.169942	262.048
0.150652	262.067
0.129438	261.234
0.108225	260.4
0.0870166	258.711
0.067732	257.876
0.0503877	255.328

File: ja4015666_page_3_p11-Cu_ads.txt
# Relative Pressure (p/p0)    Quantity Adsorbed
0.931375	 341.667
0.910167	339.978
0.883167	339.15
0.86774	338.311
0.846527	337.477
0.829165	337.495
0.806023	336.664
0.786738	335.828
0.769377	335.846
0.752016	335.864
0.726933	336.745
0.705725	335.056
0.690292	335.072
0.667144	335.095
0.645925	335.117
0.628564	335.135
0.588054	335.177
0.588054	335.177
0.566835	335.198
0.549485	333.506
0.526337	333.529
0.508981	332.692
0.489691	332.712
0.470406	331.876
0.451116	331.896
0.427968	331.92
0.412535	331.935
0.387464	331.106
0.348889	330.29
0.348889	330.29
0.32961	328.599
0.31032	328.619
0.287171	328.643
0.269821	326.95
0.25246	326.968
0.231252	325.279
0.206175	325.305
0.194601	325.317
0.171469	322.774
0.150267	320.23
0.129053	319.396
0.109769	318.561
0.0905013	315.159
0.071228	312.613
0.0461733	309.218
0.0346161	306.664
0.028846	304.103
0.0230759	301.543
0.011547	294.713
0.00777946	281.031
0.0115753	290.436
0.00784734	270.767
0.000238724	254.524
0.000334892	239.983
0.00432305	220.307
0.00251282	202.347
0.000708252	183.531
-0.00110763	166.426
-0.000994495	149.32
0.00105333	131.356
-0.000745588	111.685
-0.00447919	92.8718
0.001438	73.1932
-0.00230125	55.2351
-0.000247775	36.4158
-0.00397006	15.8918

File: ja4015666_page_3_p11-Cu_des.txt
# Relative Pressure (p/p0)    Quantity Adsorbed
0.95066	 342.502
0.931347	345.944
0.912057	345.963
0.888908	345.987
0.869624	345.152
0.84841	344.318
0.827191	344.34
0.807912	342.649
0.790556	341.811
0.765479	341.837
0.748118	341.855
0.728833	341.019
0.705691	340.188
0.690258	340.204
0.669045	339.37
0.64782	340.247
0.609251	338.576
0.609251	338.576
0.626601	340.269
0.589966	337.741
0.570676	337.76
0.547522	338.64
0.508953	336.968
0.508953	336.968
0.526314	336.951
0.485804	336.992
0.466514	337.012
0.447235	335.321
0.426022	334.488
0.389376	333.67
0.404797	335.365
0.364304	332.84
0.346943	332.858
0.329587	332.021
0.30645	330.334
0.285225	331.211
0.265941	330.375
0.229301	328.702
0.24858	330.393
0.24858	330.393
0.204223	328.728
0.184944	327.037
0.165654	327.057
0.14831	324.509
0.127096	323.675
0.0904673	320.291
0.0904673	320.291
0.107817	321.984
0.065407	317.751
0.0480853	311.782

File: ja5063423-si_page_16_3-Cd_ads.txt
# Relative Pressure (p/p0)    Quantity Adsorbed
1.00034	 363.112
0.957451	356.393
0.957451	356.393
0.97763	360.432
0.924637	353.727
0.886766	352.423
0.813541	351.166
0.813541	351.166
0.858988	352.46
0.788296	349.845
0.755459	351.245
0.715063	349.944
0.677184	349.996
0.64437	347.329
0.576211	343.356
0.611542	347.374
0.611542	347.374
0.540865	342.048
0.505518	340.741
0.465122	339.44
0.432293	339.484
0.401997	338.17
0.374227	336.852
0.338896	332.834
0.301032	330.174
0.260628	330.229
0.225282	328.922
0.152064	326.31
0.152064	326.31
0.18741	327.617
0.119251	323.644
0.0813868	320.984
0.0485811	316.962
0.0233512	312.93
0.0183006	312.937
0.00822995	307.529
0.00826798	300.752
0.00325547	293.982
0.00330871	284.494
0.00335435	276.361
-0.00668589	265.531
-0.00660222	250.621
-0.00654137	239.778
-0.00652615	237.067
-0.00900579	228.938
-0.00896015	220.805
-0.0088993	209.962
-0.0113637	199.122
-0.0113561	197.766
-0.0113105	189.634
-0.0112648	181.501
-0.0111964	169.302
-0.0136684	159.818
-0.0111203	155.748
-0.0110823	148.971
-0.00349887	147.605
-0.00344563	138.117
-0.00338478	127.274
-0.00333914	119.141
-0.00327829	108.298
-0.00571989	93.3913
-0.00568947	87.9696
-0.0081615	78.485
-0.0106031	63.5787
-0.00800937	51.3763
-0.010489	43.2472
-0.0104282	32.4037
-0.0104282	32.4037
-0.0103749	22.9157
-0.0103217	13.4277

File: ja5063423-si_page_16_3-Cd_des.txt
# Relative Pressure (p/p0)    Quantity Adsorbed
0.505473	 348.873
0.505473	348.873
0.533258	347.48
0.603943	351.451
0.571122	350.14
0.460025	347.579
0.460025	347.579
0.641837	348.688
0.677168	352.707
0.752949	348.538
0.752949	348.538
0.710004	351.307
0.780704	352.566
0.816066	351.163
0.85142	351.115
0.889299	351.064
0.914551	351.03
0.437336	340.833
0.331313	334.2
0.331313	334.2
0.258087	332.943
0.182352	328.98
0.0864373	320.977
0.0283941	314.279
-0.00435077	299.414
-0.0017114	279.079
-0.00393243	224.865
-0.00607739	157.097
-0.00058568	78.4747
-0.00269261	3.92938
-0.00535479	28.3306
-0.00331632	115.075
-0.00880803	193.697