Folder: Experimental-Data-Digitalization/data/nitrogen-adsorption-isotherms (part 7)

File: ic502643m-si_page_26_IIa_ads.txt
# Relative Pressure (p/p0)    Quantity Adsorbed
0.00330854	 2.90659
0.00351802	9.87821
0.00573069	16.8493
0.00593363	23.6031
0.00413338	30.3574
0.00434941	37.5468
0.00648353	41.9036
0.00471601	49.7472
0.00480111	52.5794
0.00290921	56.2836
0.00499095	58.8974
0.00505642	61.0761
0.0071578	64.3435
0.00722981	66.74
0.0132852	68.2635
0.0353399	68.9113
0.0533817	69.3423
0.0834558	70.2059
0.101491	70.419
0.121536	70.8495
0.137568	71.0632
0.161613	71.2748
0.181658	71.7053
0.199687	71.7006
0.255796	72.3395
0.301875	72.5453
0.355981	73.1848
0.404058	73.1722
0.452141	73.3775
0.502221	73.3644
0.55232	74.0049
0.606413	74.2086
0.654489	74.196
0.700556	73.9661
0.752652	74.3882
0.800728	74.3757
0.82076	74.3704
0.848805	74.3631
0.876869	75.0094
0.902917	75.2204
0.922943	74.9973
0.947001	75.6446
0.973042	75.6378
0.991123	77.376

File: ic502643m-si_page_26_IIa_des.txt
# Relative Pressure (p/p0)    Quantity Adsorbed
0.997165	 78.4638
0.981088	76.725
0.94702	76.2982
0.924972	75.8682
0.896927	75.8756
0.872883	75.664
0.854874	76.3223
0.844858	76.3249
0.800781	76.1186
0.758714	76.1296
0.708641	76.3605
0.662561	76.1547
0.632513	76.1626
0.562395	75.963
0.528347	76.1898
0.482267	75.984
0.428188	76.216
0.380091	75.575
0.328009	75.5886
0.281929	75.3828
0.231849	75.3959
0.155715	74.98

File: ic502643m-si_page_26_IIc_ads.txt
# Relative Pressure (p/p0)    Quantity Adsorbed
0.00525935	 1.16316
-0.000665111	3.99695
0.00540992	6.17401
0.00545575	7.69906
0.00152792	10.3145
0.00361622	13.1462
0.00368823	15.5427
0.00777316	18.156
0.00380606	19.4642
0.00389771	22.5143
0.00397627	25.1286
0.00402864	26.8715
0.00612348	29.9211
0.00418575	32.1003
0.00423812	33.8432
0.00431668	36.4575
0.00642461	39.9428
0.00642461	39.9428
0.00645734	41.0321
0.00651626	42.9929
0.00656208	44.5179
0.00662755	46.6966
0.0126895	48.4379
0.0287477	49.523
0.0648379	50.6029
0.0828666	50.5982
0.0989052	51.0297
0.124986	52.3301
0.143021	52.5433
0.157044	52.5396
0.179105	53.4053
0.201153	53.8353
0.253269	54.911
0.303375	55.7693
0.35348	56.6277
0.405576	57.0498
0.453679	57.9087
0.503792	58.9849
0.553884	59.4075
0.603984	60.048
0.65208	60.689
0.69818	61.5485
0.750289	62.4063
0.804375	62.3921
0.804375	62.3921
0.82042	63.0415
0.854494	63.6862
0.878532	63.68
0.9046	64.5446
0.930648	64.7557
0.956702	65.1846
0.978757	65.8324
0.990802	66.7007

File: ic502643m-si_page_26_IIc_des.txt
# Relative Pressure (p/p0)    Quantity Adsorbed
0.998854	 68.0058
0.978783	66.7039
0.918655	65.6302
0.918655	65.6302
0.950712	65.8397
0.8966	64.9824
0.860536	64.774
0.860536	64.774
0.842494	64.343
0.81445	64.3503
0.77436	63.4893
0.72627	63.0662
0.676177	62.6435
0.628088	62.2204
0.577982	61.362
0.525873	60.5042
0.477789	60.2989
0.42769	59.6584
0.375588	59.0184
0.329495	58.3769
0.277385	57.519
0.227293	57.0964
0.161155	56.0244

File: ic502725y-si_page_11_Th6O4(OH)4(H2O)6(bdc)6_ads.txt
# Relative Pressure (p/p0)    Quantity Adsorbed
0.0326529	 188.745
0.0439306	190.086
0.0552012	191.177
0.0664653	192.032
0.0777162	192.417
0.0889772	193.163
0.100127	193.977
0.112525	194.812
0.123784	195.48
0.135041	196.069
0.146299	196.72
0.157555	197.278
0.168809	197.773
0.180064	198.33
0.191319	198.856
0.20257	199.226
0.213823	199.689
0.225071	199.996
0.236321	200.319
0.247571	200.688
0.258617	201.057
0.270068	201.302
0.281317	201.624
0.292567	201.946
0.303812	202.128
0.315057	202.325
0.326302	202.49
0.337552	202.828
0.348797	203.025
0.360043	203.222
0.371291	203.514
0.382534	203.616
0.393781	203.876
0.405026	204.026
0.416271	204.207
0.427513	204.295
0.438756	204.398
0.450002	204.61
0.46125	204.886
0.472494	205.02
0.483736	205.107
0.494983	205.336
0.506226	205.454
0.51747	205.573
0.528717	205.817
0.53996	205.936
0.551201	205.96
0.562446	206.126
0.573686	206.135
0.584926	206.143
0.596167	206.184
0.607416	206.475
0.618657	206.515
0.629899	206.602
0.641142	206.705
0.652387	206.855
0.663628	206.895
0.674872	207.045
0.686118	207.258
0.697358	207.267
0.708602	207.385
0.719849	207.629
0.731089	207.638
0.742335	207.851
0.753579	208.001
0.764822	208.088
0.776068	208.301
0.787314	208.498
0.798561	208.773
0.809805	208.908
0.821049	209.042
0.832298	209.364
0.843549	209.734
0.854801	210.182
0.866051	210.52
0.877303	210.952
0.888558	211.478
0.899812	211.989
0.911069	212.578
0.922328	213.276
0.933597	214.289
0.944871	215.52
0.95614	216.533
0.967426	218.188
0.978224	220.629
0.98652	224.941
0.993271	228.835
0.999485	231.821

File: ic502725y-si_page_11_Th6O4(OH)4(H2O)6(bdc)6_des.txt
# Relative Pressure (p/p0)    Quantity Adsorbed
0.074677	 193.356
0.0859375	194.086
0.0972007	194.91
0.108464	195.734
0.119725	196.495
0.130983	197.131
0.142239	197.705
0.153496	198.294
0.164751	198.836
0.176004	199.299
0.18726	199.872
0.198512	200.273
0.209765	200.752
0.221016	201.137
0.232263	201.382
0.243513	201.735
0.254763	202.089
0.266012	202.396
0.277261	202.734
0.288509	203.009
0.299758	203.316
0.311006	203.591
0.322251	203.773
0.333499	204.08
0.344744	204.229
0.355989	204.426
0.367236	204.655
0.378481	204.836
0.389727	205.049
0.400969	205.136
0.412211	205.176
0.423457	205.389
0.4347	205.508
0.445944	205.658
0.45719	205.87
0.46844	206.224
0.479684	206.343
0.490931	206.587
0.502176	206.784
0.513421	206.949
0.524664	207.037
0.535911	207.312
0.547152	207.321
0.558393	207.361
0.569637	207.511
0.580877	207.52
0.592118	207.529
0.603362	207.679
0.614605	207.797
0.625849	207.916
0.637094	208.082
0.648335	208.122
0.659579	208.272
0.670819	208.281
0.682065	208.462
0.693308	208.565
0.70455	208.652
0.715798	208.927
0.72704	209.015
0.738283	209.102
0.749526	209.221
0.760771	209.402
0.772017	209.599
0.783263	209.812
0.79451	210.056
0.805759	210.378
0.817003	210.528
0.828253	210.882
0.839504	211.251
0.850756	211.699
0.862009	212.147
0.873262	212.61
0.884525	213.419
0.89579	214.306
0.907053	215.13
0.918318	216.001
0.929602	217.578
0.940897	219.531
0.952193	221.546
0.96349	223.562
0.974807	226.299
0.986142	229.71
0.997473	232.932
1.00364	234.239

File: ic502921j-si_page_4_1_ads.txt
# Relative Pressure (p/p0)    Quantity Adsorbed
0.00181159	 17.8404
0.00181159	30.9859
-0.00181159	37.5587
0.0	46.0094
0.0	59.1549
0.0	73.2394
0.0	82.6291
0.0	92.0188
0.0	97.6526
0.00181159	137.089
0.0	174.648
0.0	189.671
0.00181159	198.122
0.0	203.756
0.00181159	222.535
0.00181159	234.742
0.00181159	238.498
0.00362319	242.254
0.00181159	247.887
0.00181159	253.521
0.00362319	266.667
0.00362319	272.3
0.00905797	275.117
0.00905797	275.117
0.0144928	277.934
0.0163043	280.751
0.0289855	286.385
0.0507246	292.019
0.0778986	295.775
0.0996377	298.592
0.123188	301.408
0.152174	304.225
0.175725	305.164
0.201087	307.981
0.228261	307.981
0.300725	315.493
0.349638	317.371
0.324275	316.432
0.376812	320.188
0.398551	319.249
0.425725	320.188
0.451087	322.066
0.480072	323.944
0.501812	324.883
0.527174	326.761
0.552536	328.638
0.577899	327.7
0.601449	329.577
0.626812	330.516
0.652174	332.394
0.675725	332.394
0.699275	334.272
0.775362	336.15
0.827899	338.028
0.849638	338.967
0.896739	341.784
0.929348	342.723
0.949275	342.723
0.978261	344.601
0.994565	345.54

File: ic502921j-si_page_4_1_des.txt
# Relative Pressure (p/p0)    Quantity Adsorbed
0.996377	 347.418
0.971014	346.479
0.949275	344.601
0.923913	343.662
0.900362	343.662
0.853261	339.906
0.853261	339.906
0.873188	340.845
0.824275	338.967
0.800725	338.028
0.775362	337.089
0.75	337.089
0.724638	335.211
0.702899	335.211
0.677536	333.333
0.652174	332.394
0.623188	332.394
0.601449	331.455
0.576087	330.516
0.550725	329.577
0.528986	328.638
0.501812	325.822
0.478261	325.822
0.447464	324.883
0.425725	322.066
0.402174	321.127
0.375	320.188
0.347826	318.31
0.32971	318.31
0.297101	316.432
0.251812	312.676
0.251812	312.676
0.228261	309.859
0.202899	309.859
0.179348	308.92
0.152174	306.103
0.126812	302.347
0.103261	301.408
0.076087	297.653
0.0525362	293.897
0.0271739	287.324

File: ic1010083_page_4_1a_ads.txt
# Relative Pressure (p/p0)    Quantity Adsorbed
0.00437631	 83.1106
0.00625582	97.4385
0.00592414	105.498
0.0106137	111.542
0.0154046	115.123
0.0269673	134.15
0.0293996	135.045
0.0392486	135.715
0.0441869	135.714
0.0515851	135.936
0.0589742	136.382
0.0762307	137.05
0.10833	137.043
0.145349	137.482
0.182368	137.921
0.182368	137.921
0.207059	137.916
0.207059	137.916
0.239158	137.909
0.263841	138.127
0.298409	138.119
0.342845	138.333
0.419388	138.316
0.461364	138.307
0.486028	138.973
0.540359	138.737
0.611955	138.945
0.651462	138.936
0.68849	139.151
0.737882	138.917
0.779858	138.907
0.836639	139.118
0.881057	139.78
0.925465	140.666

File: ic1010083_page_4_1a_des.txt
# Relative Pressure (p/p0)    Quantity Adsorbed
0.977142	 144.908
0.878523	141.348
0.878523	141.348
0.92294	142.009
0.841504	140.908
0.797059	140.918
0.757562	140.703
0.718046	140.936
0.67854	140.945
0.636564	140.954
0.594597	140.74
0.572384	140.521
0.515584	140.757
0.476078	140.766
0.411889	140.557
0.411889	140.557
0.448926	140.548
0.35262	140.794
0.335336	140.798
0.295838	140.583
0.256332	140.591
0.211887	140.601
0.172399	140.163
0.13538	139.723
0.0909535	139.285
0.0514838	138.399
0.00720478	134.379

File: ic5005374-si_page_15_438-MOF_ads.txt
# Relative Pressure (p/p0)    Quantity Adsorbed
0.00605061	 16.6667
0.00330033	28.9216
0.00330033	36.2745
0.00330033	46.0784
-0.00220022	50.9804
0.00605061	60.7843
0.00605061	68.1373
0.00605061	75.4902
0.00605061	80.3922
0.00330033	87.7451
0.00330033	97.549
0.00330033	102.451
0.00330033	122.059
0.00330033	131.863
0.00880088	144.118
0.0253025	173.529
0.0308031	185.784
0.0473047	200.49
0.0665567	202.941
0.0775578	225.0
0.0775578	225.0
0.09956	234.804
0.149065	251.961
0.179318	264.216
0.179318	264.216
0.234323	278.922
0.234323	278.922
0.29758	300.98
0.29758	300.98
0.319582	308.333
0.371837	315.686
0.393839	327.941
0.393839	327.941
0.410341	332.843
0.440594	340.196
0.462596	342.647
0.473597	354.902
0.4956	362.255
0.512101	372.059
0.528603	374.51
0.556106	384.314
0.569857	391.667
0.589109	396.569
0.589109	396.569
0.60286	401.471
0.635864	411.275
0.635864	411.275
0.652365	416.176
0.663366	423.529
0.671617	428.431
0.685369	435.784
0.721122	455.392
0.721122	455.392
0.745875	462.745
0.767877	479.902
0.789879	497.059
0.79813	504.412
0.811881	511.765
0.836634	533.824
0.844884	546.078
0.864136	565.686
0.864136	565.686
0.875138	575.49
0.886139	585.294
0.89714	597.549
0.913641	619.608
0.932893	636.765
0.935644	644.118
0.943894	656.373
0.952145	666.176
0.960396	680.882
0.968647	695.588
0.976898	710.294
0.270077	293.627

File: ic5005374-si_page_15_438-MOF_des.txt
# Relative Pressure (p/p0)    Quantity Adsorbed
0.99615	 742.157
0.979648	729.902
0.943894	702.941
0.943894	702.941
0.957646	710.294
0.919142	683.333
0.905391	663.725
0.883388	644.118
0.864136	629.412
0.844884	614.706
0.809131	600
0.792629	590.196
0.762376	570.588
0.740374	558.333
0.721122	543.627
0.69912	531.373
0.677118	511.765
0.660616	504.412
0.638614	489.706
0.619362	477.451
0.594609	462.745
0.572607	452.941
0.545105	440.686
0.520352	433.333
0.4956	413.725
0.476348	389.216
0.468097	369.608
0.451595	367.157
0.432343	357.353
0.407591	350.0
0.380088	337.745
0.352585	327.941
0.319582	320.588
0.29758	313.235
0.264576	308.333
0.234323	298.529
0.20132	288.725
0.171067	278.922
0.138064	264.216
0.118812	256.863
0.0913091	244.608
0.0748075	237.255
0.0638064	229.902
0.0528053	220.098
0.0473047	215.196
0.0335534	205.392
0.0225523	193.137
0.0115512	166.176

File: ic5008457_page_5_1e_ads.txt
# Relative Pressure (p/p0)    Quantity Adsorbed
0	 2.90698
0.0	4.06977
0.0	6.39535
0.0	8.13953
-0.00222717	15.1163
-0.00222717	18.6047
0.00222717	25.5814
0.0	36.0465
0.0	45.9302
0.0	57.5581
-0.00222717	72.093
-0.00222717	88.9535
0.00222717	109.884
0.00890869	130.233
0.077951	141.279
0.153675	143.023
0.227171	144.767
0.302895	146.512
0.371938	148.256
0.432071	147.674
0.492205	148.837
0.561247	149.419
0.619154	151.163
0.670379	151.163
0.706013	152.326
0.759465	153.488
0.81069	155.233
0.857461	155.814
0.902004	157.558
0.930958	159.884
0.946548	164.535
0.962138	172.093
0.98441	179.651

File: ic5008457_page_5_1e_des.txt
# Relative Pressure (p/p0)    Quantity Adsorbed
0.993318	 185.465
0.982183	183.14
0.966592	177.907
0.937639	172.093
0.910913	170.349
0.893096	167.442
0.841871	162.791
0.775056	158.14
0.730512	156.977
0.688196	155.814
0.639198	154.651
0.5902	154.07
0.538976	153.488
0.487751	152.907
0.436526	152.326
0.385301	151.163
0.336303	151.163
0.289532	150.0
0.238307	149.419
0.191537	149.419
0.167038	148.256
0.138085	148.256
0.115813	147.093
0.100223	146.512

File: ic7014034_page_3_1a_ads.txt
# Relative Pressure (p/p0)    Quantity Adsorbed
-0.000491642	 -0.497915
0.0216323	0.94212
0.0339233	0.945644
0.053589	0.951283
0.0707965	1.19517
0.0904621	1.6787
0.115044	1.68575
0.144543	1.69421
0.16175	1.69914
0.20354	2.18902
0.20354	2.18902
0.181416	2.18268
0.235497	2.43714
0.279744	2.68877
0.370698	3.67065
0.370698	3.67065
0.319076	3.17795
0.444444	4.88653
0.444444	4.88653
0.405113	3.68051
0.486234	5.13747
0.528024	5.86629
0.55998	5.87546
0.596853	6.60288
0.646018	7.33382
0.660767	7.33805
0.685349	8.06194
0.707473	8.30724
0.727139	9.26867
0.746804	9.27431
0.761554	9.27854
0.773845	9.52101
0.788594	10.2421
0.803343	10.4853
0.815634	10.7277
0.830383	11.2099
0.850049	12.1713
0.86234	12.4138
0.872173	12.4166
0.886922	13.6156
0.901672	14.0977
0.916421	15.0577
0.928712	15.7781
0.945919	17.4557

File: ic7014034_page_3_1a_des.txt
# Relative Pressure (p/p0)    Quantity Adsorbed
0.926254	 17.45
0.899213	15.5307
0.874631	14.3289
0.854966	13.6064
0.840216	13.1243
0.825467	12.8811
0.810718	12.6379
0.798427	12.6344
0.788594	12.1537
0.773845	11.9105
0.759095	11.1894
0.73943	11.1838
0.72468	10.9406
0.709931	10.4585
0.682891	9.97283
0.660767	9.96648
0.648476	9.72401
0.626352	9.47872
0.604228	9.23343
0.587021	9.22849
0.55998	8.98179
0.545231	8.49966
0.523107	8.25437
0.5059	8.24944
0.478859	8.00273
0.456735	7.27955
0.405113	7.02579
0.36824	6.53732
0.333825	7.00535
0.316618	7.00042
0.274828	6.74949
0.245329	6.50208
0.215831	6.49362
0.1765	6.48234
0.164208	6.47882
0.132252	6.46966
0.0855457	6.93416
0.06588	6.21168
0.0486726	6.44569

File: ja101440z-si_page_9_1_ads.txt
# Relative Pressure (p/p0)    Quantity Adsorbed
0.994416	 302.021
0.95504	291.271
0.919244	286.707
0.883448	283.69
0.849442	282.218
0.810066	279.984
0.77606	276.963
0.740263	274.721
0.702678	272.483
0.668671	269.462
0.629296	268.776
0.595289	267.303
0.557703	265.065
0.523697	262.045
0.486111	261.354
0.452105	258.334
0.416309	256.092
0.382302	254.619
0.342927	252.385
0.30892	250.138
0.269545	247.904
0.237328	245.654
0.199742	241.867
0.165736	240.395
0.12815	238.156
0.092354	236.688
0.0565578	232.898

File: ja101440z-si_page_9_1_des.txt
# Relative Pressure (p/p0)    Quantity Adsorbed
0.990836	 300.48
0.978308	293.542
0.95146	289.731
0.919244	285.159
0.892397	283.671
0.86197	280.642
0.827964	278.396
0.802907	276.129
0.77248	273.875
0.740263	270.851
0.713416	270.136
0.67941	267.89
0.650773	265.632
0.620347	264.151
0.58992	261.897
0.561283	259.639
0.529066	258.162
0.504009	255.896
0.473582	253.642
0.441366	252.939
0.412729	249.907
0.382302	248.427
0.355455	245.39
0.323239	244.688
0.289233	242.442
0.258806	240.961
0.231959	239.473
0.203322	234.893
0.187214	234.929
0.176475	234.178
0.156787	232.674
0.140679	231.162
0.12457	229.65
0.0977234	227.387
0.0851947	225.093
0.0583477	223.605
0.0440292	221.315
0.0332904	217.468
0.0207617	213.626
0.0082331	202.043
0.00465349	186.57

File: ja109659k-si_page_12_NENU-11_ads.txt
# Relative Pressure (p/p0)    Quantity Adsorbed
0.00209644	 3.51613
0.00209644	8.77929
0.0	21.0588
0.00209644	39.1886
0.00209644	54.9781
0.00209644	64.3348
0.00209644	81.8787
0.00209644	93.5746
0.00209644	107.025
0.00209644	125.154
0.00209644	146.791
0.00209644	153.809
0.0	156.731
0.0	160.825
0.0	165.503
0.00628931	167.261
0.0104822	170.188
0.0167715	171.361
0.0356394	173.711
0.0440252	174.886
0.0545073	176.646
0.0607966	177.819
0.0754717	178.413
0.081761	180.171
0.0901468	180.761
0.100629	180.767
0.127883	183.122
0.140461	183.714
0.163522	184.312
0.180294	185.492
0.201258	185.504
0.238994	187.28
0.264151	187.295
0.293501	187.312
0.324948	189.085
0.366876	189.11
0.406709	190.302
0.454927	190.915
0.509434	192.117
0.555556	193.313
0.616352	192.764
0.672956	195.137
0.733753	195.757
0.796646	196.963
0.859539	197.585
0.916143	197.618
0.991614	200.586

File: ja109659k-si_page_12_NENU-11_des.txt
# Relative Pressure (p/p0)    Quantity Adsorbed
0.979036	 198.824
0.93501	198.799
0.87631	197.595
0.825996	198.15
0.777778	198.122
0.719078	198.672
0.675052	197.477
0.624738	196.278
0.568134	194.49
0.524109	192.125
0.469602	190.339
0.42348	189.727
0.366876	187.94
0.314465	186.74
0.220126	186.1
0.159329	182.555
0.115304	178.436
0.100629	177.843
0.0880503	176.666
0.0754717	176.074
0.0607966	174.311
0.048218	171.964
0.0440252	170.207
0.0251572	166.688
0.0188679	163.175
0.0125786	159.663
0.00209644	143.282
0.00209644	122.23

File: ja110042b-si_page_13_1_ads.txt
# Relative Pressure (p/p0)    Quantity Adsorbed
-0.000341865	 21.7391
-0.00389201	255.435
-0.00156469	274.457
-0.00660063	315.217
-0.00660063	315.217
-0.00666637	328.804
-0.00435221	350.543
-0.00453629	388.587
-0.00458888	399.457
-0.00466778	415.761
-0.00474667	432.065
-0.00486501	456.522
-0.00253769	475.543
-0.000289271	510.87
-0.000433906	540.761
-0.0029979	570.652
-0.00311623	595.109
-0.000854663	627.717
0.00628506	652.174
0.0253506	711.957
0.0420757	755.435
0.0734485	771.739
0.100009	782.609
0.119337	788.043
0.170104	796.196
0.18704	796.196
0.203962	798.913
0.245065	804.348
0.298291	804.348
0.353896	812.5
0.395025	812.5
0.443413	812.5
0.4918	812.5
0.54258	817.935
0.595792	820.652
0.644193	817.935
0.694986	820.652
0.743386	817.935
0.794206	815.217
0.818386	817.935
0.847418	817.935
0.876438	820.652
0.893373	820.652
0.924825	820.652
0.994999	817.935
0.968386	817.935

File: ja110042b-si_page_13_1_des.txt
# Relative Pressure (p/p0)    Quantity Adsorbed
0.978064	 817.935
0.963534	820.652
0.949018	820.652
0.934502	820.652
0.910309	820.652
0.881289	817.935
0.859515	817.935
0.832902	817.935
0.806289	817.935
0.769999	817.935
0.724031	817.935
0.673225	817.935
0.622418	817.935
0.571625	815.217
0.520806	817.935
0.470012	815.217
0.421625	815.217
0.368426	809.783
0.320039	809.783
0.269258	804.348
0.223304	801.63
0.148343	793.478
0.0469144	755.435

File: ja110042b-si_page_13_PCN-61_ads.txt
# Relative Pressure (p/p0)    Quantity Adsorbed
-0.000368163	 27.1739
-0.00527262	40.7609
-0.00777086	57.0652
-0.000683731	92.3913
-0.000683731	92.3913
-0.000762623	108.696
-0.000841515	125.0
-0.000907258	138.587
-0.00098615	154.891
-0.00106504	171.196
-0.00114393	187.5
-0.00123597	206.522
-0.00128857	217.391
-0.00619302	230.978
-0.00625877	244.565
-0.00632451	258.152
-0.00157784	277.174
-0.00165673	293.478
-0.00172248	307.065
-0.00180137	323.37
-0.00188026	339.674
-0.001946	353.261
-0.00201175	366.848
-0.00207749	380.435
0.000249825	399.457
0.000184081	413.043
9.20407e-05	432.065
2.62973e-05	445.652
-0.000131487	478.261
-0.000184081	489.13
-0.000289271	510.87
-0.000341865	521.739
-0.000420757	538.043
-0.000473352	548.913
-0.000512798	557.065
0.00424702	573.37
0.00176192	586.957
0.00168303	603.261
0.00165673	608.696
0.00159099	622.283
0.0039183	641.304
0.00382626	660.326
0.0227998	739.13
0.044311	793.478
0.0804173	831.522
0.104571	839.674
0.119061	845.109
0.167409	853.261
0.179506	853.261
0.20128	853.261
0.244789	861.413
0.30284	864.13
0.353607	872.283
0.39233	869.565
0.443136	869.565
0.491484	877.717
0.54229	877.717
0.595503	880.435
0.641471	880.435
0.692277	880.435
0.74549	883.152
0.793877	883.152
0.815651	883.152
0.844684	883.152
0.871296	883.152
0.89549	883.152
0.924522	883.152
0.99467	885.87

File: ja110042b-si_page_13_PCN-61_des.txt
# Relative Pressure (p/p0)    Quantity Adsorbed
0.980167	 883.152
0.965651	883.152
0.953555	883.152
0.936619	883.152
0.910006	883.152
0.880974	883.152
0.8592	883.152
0.839845	883.152
0.808393	883.152
0.769684	883.152
0.72131	880.435
0.672923	880.435
0.61971	877.717
0.573742	877.717
0.520516	877.717
0.469723	875.0
0.41893	872.283
0.370543	872.283
0.322169	869.565
0.271388	864.13
0.223028	858.696
0.145648	850.543
0.0419048	790.761
0.00386571	652.174

File: ja302110d-si_page_11_1_ads.txt
# Relative Pressure (p/p0)    Quantity Adsorbed
0.997214	 57.3749
0.952646	51.2026
0.902507	48.3966
0.849582	32.4032
0.799443	30.3732
0.752089	28.0823
0.70195	25.7936
0.651811	23.7636
0.604457	21.7313
0.551532	19.9621
0.501393	17.4148
0.448468	15.1282
0.398329	13.3568
0.348189	11.3267
0.295265	9.81606
0.247911	7.52521
0.200557	5.75161
0.147632	4.24095
0.100279	2.72596
0.0752089	2.22817
0.0557103	1.98468
0.0139276	1.75848
0.00278552	0.732639

File: ja302110d-si_page_11_1_des.txt
# Relative Pressure (p/p0)    Quantity Adsorbed
0.94429	 51.4677
0.896936	48.401
0.849582	46.1101
0.802228	42.7848
0.746518	39.7246
0.696379	36.66
0.64624	33.8541
0.5961	30.7895
0.545961	27.725
0.495822	24.9191
0.448468	21.3351
0.395543	18.5314
0.348189	14.9474
0.29805	11.8829
0.245125	9.0791
0.197772	6.27101
0.142061	4.24527
0.0947075	2.73029
0.0394615	1.60936
0.0278552	1.61836
0.0116063	1.19993
-0.00464253	0.134953

File: ja406030p-si_page_18_tp-PMBB-1-lon-e-Br_ads.txt
# Relative Pressure (p/p0)    Quantity Adsorbed
-0.00195307	 32.3246
-0.000706701	86.095
-0.00511692	103.57
0.000539666	139.865
0.0135483	146.587
0.0236656	151.964
0.0381376	154.652
0.0714362	157.341
0.0714362	157.341
0.0540527	158.685
0.0902478	161.374
0.107626	161.374
0.127891	164.062
0.148166	164.062
0.169889	164.062
0.190154	166.751
0.206089	165.406
0.226364	165.406
0.248072	169.439
0.271248	168.095
0.292972	168.095
0.308897	169.439
0.330615	170.783
0.352338	170.783
0.368268	170.783
0.39144	170.783
0.408818	170.783
0.430551	168.095
0.446477	169.439
0.471091	170.783
0.489918	170.783
0.507296	170.783
0.529014	172.128
0.553634	172.128
0.572461	172.128
0.591287	172.128
0.614448	174.816
0.631837	172.128
0.65356	172.128
0.670934	173.472
0.688307	174.816
0.71003	174.816
0.731758	173.472
0.747694	172.128
0.767958	174.816
0.789687	173.472
0.809961	173.472
0.83168	174.816
0.846157	176.16
0.872234	173.472
0.892509	173.472
0.909873	177.505
0.93594	177.505

File: ja406030p-si_page_18_tp-PMBB-1-lon-e-Br_des.txt
# Relative Pressure (p/p0)    Quantity Adsorbed
0.950422	 177.505
0.925803	177.505
0.915665	177.505
0.892489	178.849
0.870766	178.849
0.847595	178.849
0.828768	178.849
0.81139	178.849
0.792568	177.505
0.770845	177.505
0.75057	177.505
0.728847	177.505
0.711468	177.505
0.688297	177.505
0.672367	177.505
0.650644	177.505
0.633265	177.505
0.61299	177.505
0.591267	177.505
0.57244	177.505
0.549269	177.505
0.530447	176.16
0.507271	177.505
0.491346	176.16
0.468174	176.16
0.4479	176.16
0.430521	176.16
0.408798	176.16
0.389971	176.16
0.369701	174.816
0.350875	174.816
0.3306	174.816
0.307439	172.128
0.29006	172.128
0.271238	170.783
0.249515	170.783
0.227787	172.128
0.210414	170.783
0.190139	170.783
0.171312	170.783
0.146703	168.095
0.129324	168.095
0.109054	166.751
0.0873413	164.062
0.0685146	164.062
0.049698	161.374

File: ja406030p-si_page_18_tp-PMBB-1-lon-e-Bu_ads.txt
# Relative Pressure (p/p0)    Quantity Adsorbed
-0.000509906	 33.6689
-0.0020994	71.3081
-0.00212463	78.0294
0.00214935	96.8491
0.00647883	100.882
0.0108083	104.915
0.0151378	108.947
0.0209205	111.636
0.0252551	114.324
0.0339443	114.324
0.0411803	115.669
0.0469731	115.669
0.0701344	118.357
0.0875028	121.046
0.110674	121.046
0.128042	123.734
0.148317	123.734
0.17004	123.734
0.188867	123.734
0.209137	125.079
0.229412	125.079
0.249687	125.079
0.268514	125.079
0.28734	125.079
0.309063	125.079
0.330771	129.111
0.352505	126.423
0.369888	125.079
0.369888	125.079
0.390158	126.423
0.411876	127.767
0.429265	125.079
0.448086	126.423
0.469809	126.423
0.490084	126.423
0.510354	127.767
0.530634	126.423
0.552362	125.079
0.568292	125.079
0.590016	125.079
0.610291	125.079
0.623329	123.734
0.647939	126.423
0.663869	126.423
0.689947	123.734
0.702981	123.734
0.726157	122.39
0.746437	121.046
0.763811	122.39
0.785534	122.39
0.80871	121.046
0.823182	123.734
0.84491	122.39
0.86519	121.046
0.884017	121.046
0.905745	119.701
0.92602	119.701
0.944857	117.013

File: ja406030p-si_page_18_tp-PMBB-1-lon-e-Bu_des.txt
# Relative Pressure (p/p0)    Quantity Adsorbed
0.947748	 118.357
0.936152	121.046
0.914434	119.701
0.894159	119.701
0.875328	121.046
0.855053	121.046
0.834773	122.39
0.818842	122.39
0.798568	122.39
0.77249	125.079
0.755111	125.079
0.736285	125.079
0.713108	126.423
0.694282	126.423
0.678351	126.423
0.678351	126.423
0.656618	129.111
0.633452	127.767
0.61027	130.456

File: ja406030p-si_page_18_tp-PMBB-1-lon-e-fdc_ads.txt
# Relative Pressure (p/p0)    Quantity Adsorbed
-0.0021761	 -0.851723
-0.000163346	18.5056
-0.0022851	28.1843
-0.00235049	45.6059
-0.000345002	66.899
-0.00250308	86.2563
-0.00256848	103.678
0.00154423	119.164
-0.000613854	138.521
-0.000671984	154.007
-0.00280827	167.557
-0.00081731	192.722
-0.000882706	210.143
-0.00304805	231.436
-0.00314978	258.537
-0.00314978	258.537
-0.00113703	277.894
-0.00119516	293.38
0.00289575	314.673
-0.00134775	334.03
0.00275769	351.452
0.0027141	363.066
0.00473412	380.488
0.00675414	397.909
0.0108596	415.331
0.0191504	428.881
0.0232849	438.56
0.0357611	448.238
0.0420028	452.11
0.0690987	455.981
0.0920238	459.853
0.110785	461.789
0.127461	463.724
0.154557	467.596
0.173319	469.532
0.187917	469.532
0.215005	475.339
0.229603	475.339
0.252557	471.467
0.269234	473.403
0.296337	475.339
0.331774	479.21
0.352621	481.146
0.371412	475.339
0.385981	483.082
0.415184	481.146
0.433953	481.146
0.454821	477.274
0.469419	477.274
0.492344	481.146
0.504857	481.146
0.529875	483.082
0.54448	481.146
0.567419	481.146
0.586188	481.146
0.6571	479.21
0.673783	479.21
0.698793	483.082
0.709221	483.082
0.744687	479.21
0.759285	479.21
0.786388	481.146
0.800979	483.082
0.828097	481.146
0.871905	477.274
0.840624	477.274
0.90945	475.339
0.924048	475.339