Folder: Experimental-Data-Digitalization/data/nitrogen-adsorption-isotherms (part 5)

File: c5ta10401g_page_6_Zr-L8_ads.txt
# Relative Pressure (p/p0)    Quantity Adsorbed
-0.00200382	 198.399
0.0025153	303.811
0.00261762	268.583
0.000788343	244.395
0.00345442	222.758
0.00180202	169.231
0.000380679	141.304
0.000500467	114.335
0.000209873	86.817
-9.23166e-05	61.2727
-0.00023632	36.9074
0.0106236	536.602
0.0135374	563.581
0.00975649	426.445
0.00911285	390.646
0.00896951	366.393
0.00882539	342.008
0.0122721	464.639
0.0268268	608.375
0.0280304	576.973
0.0358982	643.426
0.0496489	665.142
0.0667077	685.835
0.0866066	701.58
0.104631	709.269
0.127596	721.893
0.149523	725.642
0.168317	738.774
0.185223	740.989
0.205993	747.642
0.229024	755.422
0.25144	761.371
0.270521	766.031
0.28672	769.118
0.307152	772.09
0.329198	776.917
0.35463	781.463
0.377311	786.777
0.396345	791.019
0.412072	793.331
0.431849	795.103
0.454553	801.592
0.477141	804.586
0.49593	809.616
0.511279	810.787
0.531761	813.315
0.554781	818.269
0.577129	822.062
0.595829	825.537
0.611496	826.846
0.632536	829.477
0.656243	833.442
0.680095	835.869
0.702454	841.701
0.719715	846.597
0.738476	848.309
0.758304	850.606
0.779822	852.885
0.800832	857.402
0.820484	859.658
0.836787	860.021
0.857802	863.166
0.881125	865.146
0.902569	877.272
0.922586	880.042
0.939657	882.245
0.959266	884.086
0.981061	887.492
1.00023	893.67

File: c5ta10401g_page_6_Zr-L8_des.txt
# Relative Pressure (p/p0)    Quantity Adsorbed
1.00243	 891.135
0.982714	889.13
0.956434	887.124
0.931785	883.113
0.908765	877.096
0.884128	875.09
0.856195	871.079
0.833164	863.057
0.806896	863.057
0.782259	861.051
0.759251	857.04
0.734613	855.034
0.70831	849.017
0.683661	845.006
0.659024	843
0.632721	836.984
0.608071	832.972
0.58015	830.967
0.557131	824.95
0.535777	822.944
0.507832	816.927
0.481541	812.916
0.458533	808.905
0.4306	804.894
0.405951	800.882
0.384561	792.86
0.359924	790.854
0.327054	784.838
0.308971	780.826
0.282668	774.809
0.256353	766.787
0.228409	760.77
0.205389	754.753
0.179063	744.725
0.156055	740.714
0.133	728.68
0.106661	716.647
0.0786574	700.602
0.0588738	686.562
0.055543	678.54
0.027302	622.383

File: c6ce00126b-si_page_5_2a_ads.txt
# Relative Pressure (p/p0)    Quantity Adsorbed
0.0156857	 0.525935
0.0258963	0.548344
0.035586	0.563462
0.0460122	0.573685
0.0563975	0.576053
0.0725153	0.553634
0.0830071	0.56414
0.0926246	0.569121
0.0989358	0.625719
0.108034	0.548879
0.119097	0.593389
0.128872	0.574241
0.139283	0.620687
0.149753	0.581512
0.159611	0.621877
0.170145	0.581208
0.180039	0.635831
0.191813	0.591303
0.200992	0.609383
0.208832	0.620252
0.223696	0.599251
0.233909	0.608302
0.244126	0.601567
0.254356	0.538366
0.265058	0.59084
0.272915	0.607504
0.275109	0.48627
0.286841	0.622473
0.296687	0.614547
0.307782	0.561555
0.322593	0.635128
0.335904	0.638292
0.359077	0.604931
0.375059	0.657164
0.378521	0.600647
0.38906	0.659898
0.399201	0.677107
0.410009	0.648316
0.420327	0.615424
0.429855	0.643422
0.449377	0.558489
0.470401	0.67191
0.480339	0.703244
0.496913	0.742227
0.507271	0.762119
0.516398	0.847393
0.526191	0.859137
0.5366	0.885786
0.547211	0.847985
0.557877	0.90838
0.588617	0.837847
0.598401	0.897602
0.609056	0.802519
0.618832	0.832727
0.628553	0.826753
0.639683	0.892818
0.649594	0.86917
0.660617	0.844315
0.67034	0.846747
0.680549	0.877475
0.690749	0.946575
0.700686	0.944958
0.71159	0.929056
0.722254	0.914728
0.731107	0.936061
0.741818	0.983331
0.75194	0.942669
0.762399	0.937277
0.783372	1.00788
0.79288	1.0553
0.803601	1.06068
0.835558	1.23954
0.845762	1.29291
0.856365	1.33672
0.864718	1.45124
0.867302	1.31683
0.874803	1.41051
0.875476	1.31162
0.884699	1.59214
0.894893	1.68984
0.90544	1.80236
0.914125	1.89818
0.921763	1.96146
0.926821	2.18543
0.932361	2.32755
0.937901	2.47078
0.94344	2.61513
0.94898	2.75836
0.95452	2.90048
0.959107	3.14866
0.967689	3.28117
0.97063	3.52946
0.972606	3.69074
0.974426	3.85759
0.976244	4.02889
0.977448	4.18187
0.984294	4.70828
0.985166	4.96278
0.986835	5.20859
0.988774	5.43506
0.990713	5.66058
0.991469	5.83761
0.993149	6.03634
0.994822	6.26522
1.00118	6.69839

File: c6ce00126b-si_page_5_2a_des.txt
# Relative Pressure (p/p0)    Quantity Adsorbed
0.986727	 7.75971
0.966931	5.4558
0.953585	4.58004
0.944716	3.86633
0.90434	2.73259
0.848023	2.21677
0.800707	1.83023
0.748809	1.7362
0.692477	1.28531
0.649609	1.19069
0.597705	1.12912
0.5413	1.00292
0.489409	0.876416
0.451078	0.6841
0.399166	0.655004
0.342761	0.528796
0.247966	0.470017

File: c6ce00126b_page_4_1a_ads.txt
# Relative Pressure (p/p0)    Quantity Adsorbed
0.995693	 14.0764
0.976314	10.2548
0.96124	7.38854
0.913867	5.15924
0.862188	4.20382
0.816968	3.24841
0.763135	2.92994
0.717916	2.92994
0.666236	2.61146
0.612403	1.97452
0.56503	1.33758
0.515504	1.33758
0.463824	1.33758
0.418605	1.33758
0.371232	1.33758
0.310939	1.01911
0.282946	1.01911
0.196813	2.29299
0.16882	1.65605
0.140827	1.65605
0.112834	1.65605
0.0848407	1.97452
0.0654608	1.97452
0.0310078	1.33758
0.0180879	1.65605

File: c6ce00126b_page_4_1a_des.txt
# Relative Pressure (p/p0)    Quantity Adsorbed
0.982773	 16.6242
0.96124	12.8025
0.946167	11.5287
0.890181	7.38854
0.836348	4.84076
0.795435	4.20382
0.741602	3.24841
0.692076	3.24841
0.633936	2.92994
0.593023	2.61146
0.53919	1.97452
0.502584	2.29299
0.442291	2.92994
0.386305	2.61146
0.341085	1.65605
0.289406	1.97452
0.19466	2.29299
0.14944	1.97452
0.11068	1.97452
0.0740741	2.61146
0.0374677	2.29299
0.0137812	2.29299

File: c6dt03852b-si_page_23_Ce-CAU-24_ads.txt
# Relative Pressure (p/p0)    Quantity Adsorbed
0.992416	 337.427
0.974422	323.856
0.956485	320.891
0.925107	317.975
0.866857	316.672
0.866857	316.672
0.828775	316.81
0.813094	316.867
0.813094	316.867
0.783981	318.488
0.75038	318.611
0.723498	318.708
0.705578	318.774
0.676456	318.879
0.654047	317.446
0.61186	317.852
0.61186	317.852
0.587585	316.677
0.563318	316.766
0.53531	315.605
0.509182	316.962
0.481181	317.064
0.432645	317.241
0.410244	317.322
0.380356	313.643
0.380356	313.643
0.339294	315.055
0.339294	315.055
0.315026	315.143
0.287025	315.245
0.232869	311.654
0.206728	310.486
0.206728	310.486
0.160018	303.081
0.160018	303.081
0.188054	309.292
0.113309	295.675
0.113309	295.675
0.137597	299.374
0.137597	299.374
0.0871608	293.245
0.0422909	280.781
0.0422909	280.781
0.0572521	285.778
0.0291829	273.253
0.0235691	270.748
0.0160546	261.937
0.00847219	240.5
0.00277691	222.844
0.00263436	196.33
0.000618267	168.559
0.000462139	139.519
0.00200984	80.1703
-2.66097e-05	48.6121
-2.66097e-05	48.6121
0.00355755	20.8213

File: c6dt03852b-si_page_23_Ce-CAU-24_des.txt
# Relative Pressure (p/p0)    Quantity Adsorbed
0.97779	 325.359
0.960976	322.895
0.955376	322.916
0.955376	322.916
0.946042	322.95
0.931108	323.004
0.89936	320.594
0.871352	319.433
0.824676	318.34
0.850811	318.245
0.850811	318.245
0.798555	320.961
0.770547	319.8
0.744406	318.632
0.722005	318.714
0.695871	318.809
0.673476	320.153
0.645461	317.729
0.621194	317.818
0.595059	317.913
0.572658	317.994
0.550257	318.076
0.520376	315.659
0.496108	315.747
0.469973	315.842
0.449439	315.917
0.421445	317.281
0.399037	316.1
0.372902	316.195
0.348621	313.758
0.328087	313.833
0.301952	313.928
0.272084	314.037
0.247803	311.6
0.221669	311.695
0.197394	310.52
0.171239	306.828
0.146951	303.128
0.12453	299.422
0.100242	295.722

File: c6dt03852b-si_page_23_Zr-CAU-24_ads.txt
# Relative Pressure (p/p0)    Quantity Adsorbed
0.989806	 476.831
0.991706	483.137
0.991706	483.137
0.978496	456.67
0.963528	450.411
0.93924	446.712
0.87013	439.387
0.87013	439.387
0.851456	438.193
0.812254	438.335
0.784239	435.912
0.759965	434.737
0.731963	434.839
0.707696	434.927
0.681561	435.022
0.65916	435.104
0.60313	430.257
0.633005	431.411
0.582589	429.069
0.558322	429.157
0.509779	428.071
0.509779	428.071
0.530314	427.997
0.481778	428.173
0.459377	428.255
0.435109	428.343
0.410828	425.906
0.38656	425.994
0.356679	423.578
0.338004	422.383
0.31187	422.478
0.285722	420.048
0.263314	418.867
0.237173	417.699
0.207284	414.02
0.18487	411.576
0.134427	404.184
0.134427	404.184
0.156835	405.365
0.110125	397.959
0.08209	391.748
0.0596619	386.779
0.0465742	383.039
0.0372066	376.759
0.0128098	352.858
0.0128098	352.858
0.0107802	322.563
0.0107802	322.563
0.0108684	338.976
0.00491519	273.342
0.0050238	293.543
0.0050238	293.543
0.00296019	256.935
0.00296019	256.935
0.00629319	182.427
0.00629319	182.427
0.000835489	208.962
0.00470475	234.201
0.00433819	166.02
0.00418206	136.981
-0.00156074	110.486

File: c6dt03852b-si_page_23_Zr-CAU-24_des.txt
# Relative Pressure (p/p0)    Quantity Adsorbed
0.982284	 466.757
0.974776	459.209
0.961669	451.681
0.954202	451.708
0.942994	450.486
0.929907	446.746
0.900032	445.592
0.873877	441.899
0.853336	440.711
0.829048	437.011
0.797306	435.864
0.767438	435.973
0.722623	433.611
0.722623	433.611
0.746897	434.785
0.698362	434.961
0.664753	433.821
0.625545	432.701
0.625545	432.701
0.644219	433.896
0.597544	432.803
0.571396	430.373
0.547128	430.461
0.515393	430.576
0.502326	430.624
0.472444	428.207
0.422042	428.39
0.422042	428.39
0.395894	425.96
0.373473	422.254
0.347345	423.612
0.32307	422.437
0.296922	420.007
0.265181	418.86
0.224106	417.747
0.224106	417.747
0.203558	415.296
0.173669	411.617
0.149374	406.655
0.125086	402.955
0.0989247	398

File: c6ta00429f_page_2_NNU-28_ads.txt
# Relative Pressure (p/p0)    Quantity Adsorbed
0.966777	 449.58
0.92691	449.58
0.890365	443.277
0.850498	447.479
0.79402	443.277
0.744186	443.277
0.69103	443.277
0.641196	441.176
0.58804	441.176
0.548173	443.277
0.491694	441.176
0.44186	443.277
0.395349	441.176
0.345515	443.277
0.295681	443.277
0.245847	443.277
0.202658	441.176
0.172757	443.277
0.149502	443.277
0.119601	439.076
0.0930233	439.076
0.0730897	430.672
0.0531561	424.37
0.0431894	418.067
0.0299003	405.462
0.0199336	388.655
0.00664452	350.84
0.00332226	338.235
0.0	323.529
0.0	308.824
0.0	298.319
0.0	281.513
0.0	268.908
-0.00332226	254.202
-0.00332226	239.496
-0.00332226	222.689
-0.00332226	203.782
-0.00332226	191.176
-0.00332226	170.168
-0.00332226	151.261
-0.00332226	134.454
-0.00332226	121.849
-0.00332226	109.244
-0.00332226	92.437
-0.00332226	75.6303
-0.00332226	58.8235
-0.00332226	42.0168
-0.00332226	29.4118
-0.00332226	16.8067
-0.00332226	2.10084

File: c6ta00429f_page_2_NNU-28_des.txt
# Relative Pressure (p/p0)    Quantity Adsorbed
0.975321	 456.296
0.94212	452.621
0.90062	450.658
0.848052	448.638
0.809318	448.443
0.751217	448.149
0.712483	447.954
0.657149	447.674
0.604582	445.655
0.543714	447.101
0.507747	445.166
0.457946	446.668
0.410912	444.677
0.361111	446.179
0.305777	447.653
0.267043	443.95
0.206175	441.889
0.150841	443.363
0.018039	367.286
0.018039	367.286

File: cg100357q_page_5_1a_ads.txt
# Relative Pressure (p/p0)    Quantity Adsorbed
0.00386613	 22.5564
0.00453025	43.609
0.00206352	65.4135
0.00265648	84.2105
0.00647518	105.263
0.00718674	127.82
0.00756623	139.85
0.00770855	144.361
0.00785086	148.872
0.0208249	160.15
0.0272764	164.662
0.0399421	166.165
0.0590119	170.677
0.0875216	174.436
0.112829	176.692
0.134983	178.947
0.163469	181.955
0.191883	182.707
0.217168	184.211
0.261332	184.211
0.286592	184.962
0.321316	185.714
0.371884	188.722
0.425535	189.474
0.498162	191.729
0.577074	193.233
0.659116	193.985
0.741183	195.489
0.823202	195.489
0.905244	196.241
0.990441	196.992
1.00325	203.008

File: cg100357q_page_5_1a_des.txt
# Relative Pressure (p/p0)    Quantity Adsorbed
0.981001	 197.744
0.898935	196.241
0.794834	196.241
0.693864	195.489
0.596048	194.737
0.498257	194.737
0.403525	191.729
0.30246	187.97
0.210882	184.962
0.135054	181.203
0.103461	179.699
0.0208724	161.654
0.00123337	139.098
0.0026802	84.9624
-0.00559759	22.5564

File: cg400449c-si_page_9_NJU-Bai10_ads.txt
# Relative Pressure (p/p0)    Quantity Adsorbed
0.0025222	 19.0098
0.00244829	40.4143
-0.000369553	56.4602
0.0023097	80.5477
0.00225427	96.601
0.0021896	115.33
0.00203254	160.814
0.00195863	182.219
0.00188472	203.623
0.00182929	219.677
0.00175537	241.081
-0.0010717	259.803
-0.00115485	283.883
0.00430529	302.627
0.00146897	324.024
0.00125648	385.562
0.00120105	401.615
0.00365857	489.916
0.00210645	139.41
0.0014043	342.753
0.00131191	369.508
0.00112714	423.019
0.00105322	444.424
0.000988553	463.153
0.00358466	511.32
0.00355694	519.347
0.00346456	546.103
0.00338141	570.183
0.00332597	586.236
0.00325206	607.64
0.00595904	623.701
0.00865677	642.438
0.0278827	674.596
0.0444479	677.316
0.0913534	693.495
0.105156	696.207
0.124493	696.259
0.163148	701.714
0.182476	704.441
0.201803	707.168
0.248755	709.97
0.304012	707.442
0.353717	712.926
0.400678	713.052
0.450392	715.86
0.500125	713.318
0.552601	716.134
0.602334	713.591
0.649285	716.392
0.701771	716.533
0.751485	719.341
0.801208	719.474
0.820545	719.526
0.856457	719.622
0.873031	719.667
0.897893	719.733
0.928279	719.814
0.953141	719.881
0.994558	725.343

File: cg400449c-si_page_9_NJU-Bai10_des.txt
# Relative Pressure (p/p0)    Quantity Adsorbed
0.972496	 714.582
0.950378	719.874
0.950378	719.874
0.922764	717.124
0.914467	719.778
0.889605	719.711
0.85095	714.256
0.837129	716.895
0.809505	716.821
0.759782	716.688
0.72387	716.592
0.679672	716.474
0.627186	716.333
0.571938	716.185
0.522215	716.052
0.475254	715.927
0.425549	710.443
0.375826	710.31
0.326112	707.501
0.273626	707.361
0.226693	699.208
0.152117	696.333
0.027892	671.92
0.000517374	599.606
0.00119181	404.291
-0.000997792	238.398
0.0025222	19.0098

File: cg500091k_page_4_JLU-Liu3_ads.txt
# Relative Pressure (p/p0)    Quantity Adsorbed
0.0060241	 -1.33588
0.0331325	-1.33588
0.0662651	-1.33588
0.13253	-2.67176
0.159639	-1.33588
0.198795	-1.33588
0.274096	0.0
0.319277	1.33588
0.370482	1.33588
0.415663	0.0
0.442771	259.16
0.566265	289.885
0.620482	295.229
0.671687	301.908
0.695783	303.244
0.75	307.252
0.792169	305.916
0.813253	308.588
0.843373	308.588
0.864458	309.924
0.864458	309.924
0.891566	308.588
0.924699	312.595
0.945783	316.603
0.972892	316.603
0.993976	319.275

File: cg500091k_page_4_JLU-Liu3_des.txt
# Relative Pressure (p/p0)    Quantity Adsorbed
0.996988	 327.29
0.972892	321.947
0.924699	319.275
0.900602	319.275
0.876506	317.939
0.855422	319.275
0.825301	317.939
0.807229	317.939
0.798193	317.939
0.75	316.603
0.677711	313.931
0.626506	313.931
0.599398	313.931
0.548193	312.595
0.5	311.26
0.448795	311.26
0.39759	311.26
0.346386	309.924
0.304217	309.924
0.246988	307.252
0.198795	307.252
0.141566	307.252
0.0933735	304.58
0.0572289	299.237
0.0060241	247.137

File: cg500091k_page_4_JLU-Liu4_ads.txt
# Relative Pressure (p/p0)    Quantity Adsorbed
0.0060241	 2.67176
0.0301205	2.67176
0.063253	2.67176
0.0813253	4.00763
0.0963855	4.00763
0.11747	4.00763
0.159639	4.00763
0.195783	4.00763
0.21988	4.00763
0.246988	2.67176
0.292169	92.1756
0.340361	134.924
0.400602	172.328
0.460843	200.382
0.509036	217.748
0.542169	227.099
0.590361	240.458
0.644578	252.481
0.695783	260.496
0.740964	269.847
0.795181	275.191
0.816265	277.863
0.840361	281.87
0.86747	285.878
0.89759	288.55
0.912651	291.221
0.939759	295.229
0.96988	301.908

File: cg500091k_page_4_JLU-Liu4_des.txt
# Relative Pressure (p/p0)    Quantity Adsorbed
0.993958	 308.709
0.966767	304.629
0.927492	303.188
0.909366	303.139
0.882175	304.403
0.858006	303.002
0.824773	302.913
0.800604	302.849
0.749245	302.712
0.694864	299.894
0.646526	297.094
0.598187	298.3
0.501511	295.37
0.501511	295.37
0.546828	296.827
0.44713	292.553
0.392749	292.408
0.347432	290.951
0.299094	288.15
0.244713	283.997
0.196375	281.196
0.135952	277.027
0.0906344	268.891
0.0513595	263.442
0.00302115	209.878

File: cg500121f_page_2_1_ads.txt
# Relative Pressure (p/p0)    Quantity Adsorbed
0.00357873	 1.22543
0.00613497	8.03076
0.0189162	10.5948
0.0368098	16.5655
0.0649284	25.9479
0.103272	30.2387
0.133947	37.0727
0.205521	45.6492
0.279652	52.5275
0.351227	59.4033
0.420245	64.5758
0.486708	68.0449
0.558282	72.3697
0.629857	76.6944
0.701431	81.0192
0.77045	83.6406
0.839468	87.1124
0.880368	89.7051
0.921268	90.5972
0.962168	92.3396

File: cg500121f_page_2_1_des.txt
# Relative Pressure (p/p0)    Quantity Adsorbed
1.00562	 95.7853
0.900818	91.4267
0.775562	86.1968
0.640082	80.1062
0.527607	73.1887
0.392127	65.3974
0.261759	56.761
0.131391	44.7232
0.0623722	33.5983
0.0316973	29.3153
0.00357873	24.1846
0.00357873	19.0826
0.00357873	4.62679

File: cg500121f_page_2_2_ads.txt
# Relative Pressure (p/p0)    Quantity Adsorbed
-0.00408998	 5.4693
-0.00153374	13.125
-0.00153374	17.3767
-0.00153374	25.8801
-0.00153374	32.6828
0.00102249	42.0391
0.00102249	46.2908
0.00102249	50.5425
0.00102249	55.6446
0.00102249	62.4473
0.00102249	70.9507
0.00102249	78.6038
0.00102249	86.2568
0.00613497	93.9151
0.00613497	98.1668
0.00613497	102.419
0.0112474	108.376
0.0138037	113.481
0.0291411	131.354
0.0572597	140.736
0.0828221	145.864
0.0981595	146.73
0.121166	150.155
0.136503	151.021
0.15184	154.438
0.174847	157.863
0.19274	159.582
0.264315	163.906
0.300102	163.943
0.351227	166.546
0.399796	166.596
0.453476	167.501
0.502045	168.401
0.548057	170.148
0.601738	170.203
0.652863	171.956
0.701431	172.856
0.747444	172.903
0.803681	172.96
0.821575	173.829
0.852249	174.71
0.875256	174.734
0.898262	175.608
0.954499	176.515
0.995399	176.557

File: cg500121f_page_2_2_des.txt
# Relative Pressure (p/p0)    Quantity Adsorbed
0.995399	 181.659
0.96728	178.229
0.96728	178.229
0.982618	178.245
0.941718	175.652
0.92638	175.636
0.898262	175.608
0.875256	174.734
0.852249	175.561
0.826687	175.535
0.798569	175.506
0.755112	173.761
0.701431	173.706
0.647751	172.801
0.601738	172.754
0.550613	172.702
0.499489	172.65
0.445808	172.595
0.399796	171.698
0.348671	171.646
0.297546	169.893
0.248978	169.843
0.202965	168.946
0.149284	168.041
0.121166	168.012
0.100716	166.291
0.0802658	163.719

File: cg500149s-si_page_12_compound 3_ads.txt
# Relative Pressure (p/p0)    Quantity Adsorbed
0.0159236	 0.566125
0.0414013	0.698183
0.0636943	0.717399
0.0923567	0.811922
0.117834	0.906386
0.140127	0.963196
0.16242	1.00121
0.187898	1.05808
0.213376	1.07736
0.264331	1.20989
0.315287	1.24844
0.366242	1.32459
0.417197	1.40074
0.471338	1.45814
0.519108	1.51543
0.585987	1.57308
0.640127	1.5929
0.687898	1.66898
0.732484	1.7826
0.783439	1.89634
0.843949	2.01026
0.888535	2.18027
0.93949	2.3692
0.990446	2.46414

File: cg500149s-si_page_12_compound 3_des.txt
# Relative Pressure (p/p0)    Quantity Adsorbed
0.936306	 2.36914
0.882166	2.29293
0.815287	2.19769
0.761146	2.12149
0.716561	2.06426
0.665605	1.95052
0.611465	1.9307
0.566879	1.85468
0.519108	1.79739
0.464968	1.64599
0.429936	1.64534
0.38535	1.56931
0.33758	1.47443
0.286624	1.43587
0.229299	1.28442
0.184713	1.1896
0.133758	1.07586
0.0859873	0.924585

File: cg500149s-si_page_12_compound 4_ads.txt
# Relative Pressure (p/p0)    Quantity Adsorbed
0.0159236	 0.566125
0.0414013	0.698183
0.0636943	0.717399
0.0923567	0.811922
0.117834	0.906386
0.140127	0.963196
0.16242	1.00121
0.187898	1.05808
0.213376	1.07736
0.264331	1.20989
0.315287	1.24844
0.366242	1.32459
0.417197	1.40074
0.471338	1.45814
0.519108	1.51543
0.585987	1.57308
0.640127	1.5929
0.687898	1.66898
0.732484	1.7826
0.783439	1.89634
0.843949	2.01026
0.888535	2.18027
0.93949	2.3692
0.990446	2.46414
-0.0191083	-8.98341
0.00636943	-8.90774
0.0318471	-8.71929
0.0796178	-8.41764
0.124204	-8.19124
0.171975	-7.94598
0.213376	-7.75723
0.261146	-7.54957
0.308917	-7.3231
0.356688	-7.13424
0.407643	-6.92651
0.43949	-6.70035
0.503185	-6.45479
0.535032	-6.20983
0.585987	-5.96451
0.636943	-5.62521
0.678344	-5.34248
0.729299	-5.11595
0.770701	-4.77683
0.792994	-4.56964
0.828025	-4.30583
0.856688	-4.09852
0.89172	-3.79711

File: cg500149s-si_page_12_compound 4_des.txt
# Relative Pressure (p/p0)    Quantity Adsorbed
0.941781	 7.43081
0.900685	7.2381
0.859589	7.12702
0.835616	6.96245
0.773973	6.76861
0.739726	6.52185
0.688356	6.27416
0.640411	5.99944
0.585616	5.64272
0.530822	5.34042
0.486301	5.09309
0.438356	4.81838
0.393836	4.48942
0.349315	4.10605
0.291096	3.72193
0.243151	3.31115
0.191781	2.87298
0.143836	2.51663
0.0993151	1.9972
0.0719178	1.7236
0.0479452	1.42298

File: cg500149s_page_9_compound 1_ads.txt
# Relative Pressure (p/p0)    Quantity Adsorbed
2.41161e-05	 2.11566
0.0139929	2.99249
0.0279616	3.86933
0.0503525	4.30094
0.0727711	4.0703
0.100783	4.05793
0.123155	4.93105
0.153959	5.1382
0.179169	5.12707
0.20438	5.11594
0.249171	5.75842
0.302384	5.95568
0.355588	6.37369
0.403189	6.79417
0.459203	6.99019
0.515227	6.96546
0.560027	7.38718
0.6076	8.46993
0.658012	8.66842
0.708415	9.08767
0.756007	9.72891
0.803636	9.48713
0.8512	10.7906
0.879193	11.2198
0.904385	11.6502
0.921174	12.0842
0.943565	12.5159
0.968738	13.3877

File: cg500149s_page_9_compound 1_des.txt
# Relative Pressure (p/p0)    Quantity Adsorbed
0.985536	 13.6011
0.960344	13.1707
0.943537	13.1781
0.90714	12.7527
0.887551	12.3198
0.867952	12.1077
0.84275	11.8981
0.792366	11.0374
0.741964	10.6181
0.691571	9.97811
0.641177	9.33811
0.596368	9.13714
0.540381	8.27886
0.49278	7.85837
0.442377	7.43912
0.389164	7.24187
0.344346	7.26165
0.291179	5.96062

File: cg500149s_page_9_compound 2_ads.txt
# Relative Pressure (p/p0)    Quantity Adsorbed
0.0104143	 1.54875
0.0284295	1.77665
0.0489508	1.90924
0.068134	2.2129
0.0866984	2.54858
0.10662	2.6727
0.125664	2.91348
0.144822	2.95341
0.164516	3.24306
0.181535	3.34098
0.202562	3.424
0.218622	3.84832
0.235062	4.29326
0.251429	3.79859
0.26759	4.03736
0.303506	3.49042
0.319936	4.14675
0.353861	3.82711
0.36959	4.42302
0.404381	4.05619
0.42012	4.76625
0.453164	4.33321
0.50369	4.63155
0.520018	5.42296
0.554218	4.94586
0.569	5.7583
0.593971	6.40291
0.607025	5.42427
0.6212	6.16851
0.648852	5.79932
0.667162	6.34319
0.686258	6.38338
0.720686	6.76938
0.746683	6.79219
0.763371	7.01432
0.782871	6.98307
0.802662	6.88428
0.821764	7.6311
0.896694	8.20491
1.00216	9.41252
0.929872	8.46154

File: cg500149s_page_9_compound 2_des.txt
# Relative Pressure (p/p0)    Quantity Adsorbed
0.961599	 9.00579
0.943785	9.14161
0.906176	8.61569
0.896279	8.61727
0.864608	8.62233
0.838876	8.62643
0.801267	7.56861
0.747823	7.04522
0.694378	6.52183
0.644893	6.52973
0.595408	6.27167
0.549881	6.01298
0.498416	5.75523
0.444972	5.23184
0.399446	4.97315
0.34996	4.71509
0.300475	4.32405

File: cg501141m_page_7_Co90-INA_ads.txt
# Relative Pressure (p/p0)    Quantity Adsorbed
0.0276257	 211.207
0.0403623	213.305
0.0481476	217.131
0.0558987	217.327
0.0768073	222.108
0.0845604	222.514
0.105844	224.894
0.119569	226.426
0.131098	226.948
0.152472	228.376
0.16033	229.39
0.179239	229.861
0.186573	230.877
0.205254	231.201
0.215994	232.294
0.231177	232.6
0.237863	233.631
0.257402	233.574
0.268469	234.243
0.283176	234.548
0.298381	235.056
0.307674	235.888
0.332287	236.71
0.340422	236.721
0.358312	237.455
0.369839	237.699
0.384176	238.26
0.408557	238.919
0.419924	238.987
0.434259	239.375
0.447752	240.018
0.460233	239.832
0.476074	240.811
0.486637	240.643
0.509499	240.926
0.521286	241.637
0.535479	241.592
0.551202	242.853
0.5612	241.991
0.584604	242.548
0.596406	242.728
0.610653	242.943
0.625824	243.851
0.636149	243.059
0.660992	243.611
0.675903	244.554
0.68678	243.887
0.709981	244.627
0.723197	244.924
0.735852	244.79
0.760061	245.443
0.773279	245.846
0.785105	245.436
0.81004	246.024
0.835023	246.429
0.859525	246.86
0.884763	247.245
0.909209	247.794
0.934063	247.982
0.958891	248.587
0.985084	249.191
0.998567	249.679
1.00556	249.628

File: cg501141m_page_7_Co90-INA_des.txt
# Relative Pressure (p/p0)    Quantity Adsorbed
0.0296914	 215.851
0.0368161	216.542
0.0519722	221.142
0.0595189	221.959
0.0784996	225.999
0.0928738	228.17
0.102955	228.397
0.123843	230.237
0.136508	231.731
0.149158	231.723
0.16484	233.567
0.174373	233.068
0.195702	234.195
0.203303	235.065
0.221399	235.335
0.236402	236.705
0.246961	236.165
0.269645	236.918
0.279929	237.951
0.295379	237.75
0.308971	239.184
0.320827	238.535
0.344487	239.324
0.355557	240.323
0.370007	240
0.384972	241.08
0.395738	240.496
0.41871	241.117
0.428995	242.198
0.444191	241.693
0.457316	242.827
0.470425	242.301
0.477585	243.064
0.497413	243.035
0.511216	244.192
0.520991	244.098
0.542441	244.475
0.555101	245.438
0.567959	244.9
0.58342	245.902
0.593979	245.252
0.617347	245.474
0.63181	246.493
0.642864	245.794
0.65854	247.01
0.668805	245.97
0.691774	246.302
0.702554	247.213
0.717252	246.628
0.731965	247.531
0.743232	246.855
0.758693	247.865
0.768382	247.153
0.791642	247.571
0.804301	248.454
0.817158	247.786
0.832121	248.643
0.842886	247.947
0.866756	248.148
0.879415	249.013
0.892522	248.256
0.907733	249.367
0.918001	248.59
0.941659	248.865
0.949166	249.733
0.968393	249.165
0.975398	250.085

File: cg501332u_page_4_1'_ads.txt
# Relative Pressure (p/p0)    Quantity Adsorbed
0	 46.9314
-0.000455373	72.2022
0.00182149	95.5174
0.00182149	118.081
0.00182149	121.841
0.00182149	127.858
0.00637523	135.379
0.0132058	145.909
0.0200364	150.421
0.0291439	153.43
0.0336976	153.43
0.0473588	157.942
0.06102	160.199
0.0815118	161.703
0.111111	163.207
0.13388	163.207
0.161202	163.959
0.186248	166.968
0.21357	166.968
0.236339	166.968
0.261384	167.72
0.28643	169.976
0.306922	169.224
0.361566	169.224
0.407104	169.224
0.457195	168.472
0.505009	169.224
0.561931	169.976
0.607468	168.472
0.659836	169.224
0.712204	168.472
0.760018	168.472
0.812386	168.472
0.8602	166.215
0.910291	165.463
0.960383	169.976
0.992259	169.224
0.999089	175.993

File: cg501332u_page_4_1'_des.txt
# Relative Pressure (p/p0)    Quantity Adsorbed
1.00137	 171.48
0.978597	171.48
0.951275	168.472
0.898907	168.472
0.846539	167.72
0.798725	169.224
0.748634	169.224
0.698543	169.976
0.650729	170.728
0.596084	170.728
0.550546	172.984
0.498179	172.984
0.448087	171.48
0.397996	170.728
0.350182	170.728
0.295537	170.728
0.268215	169.976
0.25	169.224
0.224954	168.472
0.199909	168.472
0.17031	166.968
0.147541	167.72