Folder: Experimental-Data-Digitalization/data/nitrogen-adsorption-isotherms (part 3)

File: acs.inorgchem.6b00276-si_page_38_26_ads.txt
# Relative Pressure (p/p0)    Quantity Adsorbed
0.993791	 227.662
0.976391	202.344
0.946062	194.387
0.930083	192.216
0.899721	188.6
0.877345	186.429
0.854969	184.259
0.826189	182.812
0.778221	180.642
0.778221	180.642
0.751041	179.196
0.727054	178.472
0.701468	177.749
0.677503	174.132
0.647124	172.685
0.623143	171.238
0.600756	170.515
0.57357	169.792
0.552788	168.345
0.522414	166.175
0.501632	164.728
0.47604	164.728
0.448854	164.005
0.426461	164.005
0.402486	161.834
0.372118	158.941
0.351341	156.771
0.327349	156.771
0.301773	154.601
0.272999	152.431
0.24743	149.537
0.228236	149.537
0.197857	148.09
0.173887	145.197
0.153099	144.473
0.127524	142.303
0.0971445	140.856
0.0747683	138.686
0.0476159	133.623
0.0300437	130.729
0.0109054	123.495
0.00614581	118.432
0.00139733	111.921
-0.000129958	102.517
-0.00163503	90.2199

File: acs.inorgchem.6b00276-si_page_38_26_des.txt
# Relative Pressure (p/p0)    Quantity Adsorbed
0.977929	 210.301
0.949677	198.084
0.926393	192.558
0.899762	189.042
0.876455	186.53
0.84871	183.516
0.82425	186.53
0.802046	185.023
0.775408	182.511
0.748757	181.506
0.725439	180.502
0.698789	179.497
0.674371	176.985
0.647721	175.981
0.625517	174.474
0.599985	172.464
0.571117	170.957
0.550017	170.455
0.525592	168.948
0.4967	170.455
0.473386	168.948
0.448965	166.938
0.424536	165.934
0.398989	165.934
0.371239	163.422
0.349028	162.92
0.324607	160.91
0.299075	158.901
0.274653	156.891
0.246892	155.887
0.223574	154.882
0.201363	154.38
0.153627	150.863
0.123668	146.844
0.098132	145.337
0.0737223	141.821
0.0481865	140.314
0.0215747	134.286

File: acs.inorgchem.6b01211-si_page_13_LCu_ads.txt
# Relative Pressure (p/p0)    Quantity Adsorbed
0.985049	 639.663
0.961485	639.559
0.922925	639.389
0.901523	633.774
0.873681	631.811
0.847988	628.017
0.824437	624.233
0.80088	622.288
0.747352	614.691
0.700243	608.963
0.648844	605.055
0.599573	604.838
0.550309	602.78
0.498903	600.713
0.45393	596.834
0.353253	594.549
0.303988	592.491
0.248298	590.405
0.18618	588.291
0.171198	584.544
0.158345	584.488
0.121948	578.806
0.100533	576.872
0.0598575	569.331
0.0256227	558.139
0.00641041	539.653
-0.00209761	523.053
-0.00420603	513.843
-0.004179	506.483
-0.00413845	495.442
-0.00409115	482.561
-0.00405736	473.36
-0.00617254	465.99
-0.00828096	456.78
-0.00826745	453.1
-0.00824717	447.579
-0.0082269	442.059
-0.00819987	434.698
-0.00815932	423.658
-0.00597656	412.626
-0.00596305	408.946
-0.00594953	405.266
-0.00592926	399.745
-0.00588196	386.864
-0.00586844	383.184
-0.00583465	373.983
-0.00578735	361.102
-0.00571977	342.701
-0.00565219	324.3
-0.00551704	287.497
-0.00321264	243.343
-0.0030437	197.339
-0.00284096	142.135
-0.00479396	90.602
-0.000212194	9.65481

File: acs.inorgchem.6b01211-si_page_13_LCu_des.txt
# Relative Pressure (p/p0)    Quantity Adsorbed
1.00004	 639.73
0.972203	637.766
0.972203	637.766
0.933643	637.596
0.903652	637.464
0.875796	639.181
0.847954	637.218
0.824404	633.433
0.79869	635.16
0.751568	633.112
0.700155	632.885
0.646614	628.968
0.580205	628.675
0.548072	628.533
0.498801	628.315
0.443225	594.947
0.396103	592.898
0.331837	592.614
0.295426	590.613
0.246169	586.716
0.196912	582.818
0.139079	580.722
0.0855506	573.125
0.0448823	563.745
0.0171012	545.22
-0.00423306	521.204
-0.00405736	473.36

File: acs.inorgchem.6b01211-si_page_13_LCuPro_ads.txt
# Relative Pressure (p/p0)    Quantity Adsorbed
-0.0027896	 11.4836
-0.000275717	26.9521
-0.000324373	40.2011
-0.00466556	55.6394
-0.00259093	74.0502
-0.00262471	83.2509
-0.00267202	96.1319
-0.00489532	118.204
-0.00493587	129.245
-0.00499669	145.806
-0.00504399	158.687
-0.00509806	173.408
-0.00516563	191.81
-0.00310452	213.901
-0.0010434	235.992
-0.00107719	245.193
-0.00113125	259.914
-0.00119883	278.315
-0.00122586	285.676
-0.00127316	298.557
-0.00132722	313.278
0.0242509	348.354
0.0713322	361.443
0.105594	365.275
0.146276	370.975
0.178402	372.957
0.210522	376.779
0.259772	382.517
0.311185	382.744
0.358294	388.473
0.409687	394.22
0.51035	400.185
0.559601	405.923
0.608858	409.821
0.660251	415.569
0.707352	423.137
0.752305	432.537
0.786526	447.409
0.803637	454.845
0.816457	464.103
0.833527	482.58
0.846346	491.837
0.869823	515.863
0.893333	530.688
0.938326	529.047
0.97473	532.888
1.01543	533.068
-0.00272608	110.853

File: acs.inorgchem.6b01211-si_page_13_LCuPro_des.txt
# Relative Pressure (p/p0)    Quantity Adsorbed
0.99401	 532.973
0.99401	532.973
0.966168	531.01
0.966168	531.01
0.951172	530.944
0.906186	530.745
0.841906	534.142
0.79694	528.422
0.756252	524.562
0.689836	526.109
0.647006	522.24
0.604161	522.051
0.550626	516.294
0.501403	503.195
0.497206	479.254
0.497274	460.853
0.493071	438.752
0.486712	420.323
0.467513	398.156
0.452517	398.09
0.401118	394.182
0.336865	390.218
0.298319	386.368
0.240499	380.592
0.195526	376.713
0.154838	372.853
0.129138	370.899
0.120583	367.181
0.0906054	363.368
0.0542148	355.847
0.0371042	348.411
0.0178648	337.285
0.00720107	324.356

File: c4ce00408f_page_5_UHM-31_ads.txt
# Relative Pressure (p/p0)    Quantity Adsorbed
0.949686	 491.601
0.830927	485.748
0.726296	485.459
0.321716	466.386
0.307654	469.11
0.279484	469.032
0.253271	462.053
0.235162	462.003
0.204947	457.776
0.190862	457.737
0.162681	456.278
0.130454	452.045
0.102262	449.205
0.0740259	440.84
0.049836	435.248
0.0377522	433.834
0.0031349	382.633
0.00307932	375.727
0.00299038	364.677
0.0029348	357.771
0.00476905	335.676
0.000177867	265.221
-0.00598077	0.0111167

File: c4ce00408f_page_5_UHM-31_des.txt
# Relative Pressure (p/p0)    Quantity Adsorbed
0.989951	 494.475
1.00006	500.028
0.921527	492.905
0.786693	489.77
0.72026	485.443
0.62568	483.8
0.523028	479.373
0.42638	470.819
0.327764	467.784
0.229126	461.987
0.108276	446.459
0.0154633	414.435
0.0154633	414.435
0.0154411	411.673
0.0113724	406.136
0.0092713	395.081

File: c4dt02048k_page_4_Er-DADQ_ads.txt
# Relative Pressure (p/p0)    Quantity Adsorbed
-0.00124516	 24.1004
0.00381441	21.1681
0.0145555	25.978
0.0310265	28.1724
0.0500463	29.5501
0.0689564	31.3441
0.0864278	31.9748
0.0994685	33.1633
0.119932	34.232
0.13802	34.9786
0.152819	35.4293
0.175018	36.1887
0.200505	37.8023
0.225171	39.2862
0.249836	40.5828
0.275324	41.5955
0.300811	42.8302
0.325477	44.1124
0.350965	45.2779
0.376452	46.4607
0.401118	47.6276
0.425783	48.9963
0.451271	50.2698
0.471825	52.1801
0.478403	51.0132
0.501424	52.5115
0.526089	53.5632
0.550754	54.6005
0.57542	55.8971
0.60173	56.9488
0.625573	58.205
0.651061	59.2826
0.675726	61.0691
0.696372	62.236
0.714163	63.1742
0.728346	63.6582
0.750544	64.9473
0.772013	66.1114
0.790174	67.0219
0.803164	67.5665
0.825363	68.8631
0.845424	70.1726
0.8638	71.2618
0.900017	73.8291
0.920736	75.7351
0.936357	77.0155
0.95239	79.3547
0.965603	82.3014
0.981577	84.3791
0.988155	90.3002
-0.00257069	18.6486
-0.00514139	17.4324
0.0	14.5946
0.0	12.973
0.0	11.3514
0.0	7.7027
0.0	6.08108
0.0	3.24324
0.0	2.83784

File: c4dt02048k_page_4_Er-DADQ_des.txt
# Relative Pressure (p/p0)    Quantity Adsorbed
0.989872	 93.0649
0.980946	90.4842
0.957143	85.792
0.93334	82.5075
0.88276	79.223
0.88276	79.223
0.902099	80.1614
0.857469	77.3461
0.827716	75.7038
0.778623	72.6539
0.778623	72.6539
0.806889	74.5308
0.759283	71.9501
0.731017	70.777
0.704239	68.9002
0.683412	67.7271
0.655146	66.7887
0.631343	64.9118
0.603078	64.4426
0.580763	63.2695
0.552497	61.8619
0.528694	60.2196
0.504891	59.5158
0.479601	54.3544
0.457286	52.7121
0.434971	51.7736
0.408193	50.366
0.379927	48.4891
0.354637	48.0199
0.326371	45.9084
0.302568	45.6738
0.278766	43.7969
0.256451	43.3277
0.23116	42.1547
0.204382	40.5124
0.177604	39.3393
0.156777	38.1663
0.101733	35.351
0.101733	35.351
0.132974	36.9932
0.0541274	31.8318
0.0481767	31.8318
0.0169356	28.5473
0.0169356	28.5473

File: c4dt03702b_page_4_MOF-1_ads.txt
# Relative Pressure (p/p0)    Quantity Adsorbed
0.00812121	 12.4059
0.0072145	11.0917
0.00718829	9.87004
0.00501749	0.82144
0.0102847	16.7291
0.0135589	18.5995
0.0143603	20.6748
0.0173852	22.6854
0.021538	24.7599
0.0254182	26.9774
0.0266262	29.1108
0.0295816	31.1494
0.0245865	22.3334
0.0334606	33.3087
0.0359541	35.5242
0.0373518	37.6711
0.0403035	39.5362
0.0439887	41.4922
0.046859	43.6043
0.0480348	45.5219
0.0520881	48.1361
0.0455361	46.7793
0.0550818	49.9463
0.0473594	39.6346
0.064764	52.3936
0.0766839	55.2008
0.0925446	57.4231
0.117622	59.2946
0.151914	60.6982
0.199383	62.1018
0.207297	62.4527
0.248162	63.1545
0.29462	64.2183
0.34111	65.3476
0.386597	66.4933
0.431108	67.4933
0.481514	68.301
0.52766	69.4706
0.57348	70.0666
0.620586	70.6403
0.664738	70.9619
0.705601	71.576
0.746459	71.9269
0.789952	72.2778
0.830815	72.8626
0.838721	72.8626
0.871675	73.3305
0.909902	73.9153
0.952085	74.6171
0.995585	75.2923

File: c4dt03702b_page_4_MOF-2_ads.txt
# Relative Pressure (p/p0)    Quantity Adsorbed
0.0360019	 1.63045
0.0505668	4.87625
0.0690787	7.82964
0.0915425	10.7245
0.118257	12.848
0.12585	12.8592
0.146976	14.8476
0.179857	16.6471
0.210195	18.0417
0.24195	19.2923
0.273591	19.9941
0.306559	21.1345
0.342156	21.9825
0.379081	23.2691
0.409399	23.737
0.442363	24.6727
0.471372	25.5712
0.503009	26.0763
0.538603	26.7409
0.57156	27.3629
0.609784	27.8308
0.644056	28.2987
0.680644	28.5437
0.715242	29.5853
0.750828	29.9069
0.782779	30.4208
0.816744	31.2228
0.848385	31.9246
0.856291	31.9246
0.880018	32.2755
0.914287	32.6264
0.957775	32.7434
0.990729	33.2112
0.998636	33.2112

File: c4ra13058h-si_page_4_2a_ads.txt
# Relative Pressure (p/p0)    Quantity Adsorbed
0.0553172	 2.26631
0.0645332	2.5978
0.0816704	2.50363
0.0919527	2.48928
0.115945	3.00902
0.126227	2.94803
0.152504	3.35746
0.163929	3.35746
0.182209	3.84089
0.192491	3.84089
0.218768	4.18619
0.22905	4.18619
0.246187	4.46243
0.25647	4.46243
0.294172	4.94585
0.304454	4.96558
0.321591	5.22209
0.331873	5.22209
0.35815	5.52345
0.368433	5.5378
0.394927	5.83048
0.405635	5.78896
0.433554	6.05082
0.444408	6.01629
0.462116	6.32706
0.472398	6.32706
0.498675	6.32706
0.508958	6.32706
0.535235	6.6033
0.545517	6.6033
0.571794	6.87954
0.582076	6.87954
0.608353	6.9486
0.618636	6.9486
0.635773	7.07416
0.647198	6.99464
0.676902	7.40691
0.688327	7.44737
0.713461	7.77732
0.724886	7.77732
0.740881	8.05356
0.751163	8.05356
0.77744	8.05356
0.788865	8.06891
0.814	8.32981
0.824282	8.32981
0.850559	8.60605
0.860841	8.60605
0.887118	8.81323
0.897401	8.81323
0.923678	9.0518
0.93396	9.08947
0.960237	9.42849
0.972804	9.31548
0.985372	9.3406
0.992226	9.43477

File: c5dt01100k-si_page_11_UiO-66 three pumps_ads.txt
# Relative Pressure (p/p0)    Quantity Adsorbed
0.00107052	 88.8247
0.003633	34.9343
0.00633899	109.892
0.00630657	86.9795
0.00611287	55.8613
0.00585488	14.5741
0.0108565	155.562
0.00811634	131.894
0.0176985	174.789
0.024168	180.355
0.0330828	187.183
0.0406207	190.443
0.0472345	191.96
0.0561436	194.713
0.0631354	197.268
0.0710757	199.291
0.079589	199.622
0.0857461	200.792
0.0906386	203.015
0.105747	202.57
0.111856	203.644
0.130782	205.837
0.136395	206.732
0.155206	208.037
0.160871	208.535
0.180355	210.335
0.185262	210.14
0.20468	212.485
0.21004	212.363
0.228955	213.907
0.234935	213.755
0.254976	215.571
0.260439	215.289
0.278465	217.041
0.285117	216.329
0.304651	217.963
0.310265	217.938
0.328775	218.509
0.33505	218.729
0.353922	219.622
0.360196	219.187
0.380013	221.356
0.385706	221.19
0.403501	222.198
0.409913	221.875
0.428891	223.2
0.434939	222.895
0.453812	223.475
0.460086	223.291
0.479496	225.68
0.485011	225.648
0.504642	226.201
0.510158	226.449
0.528859	227.722
0.534951	227.485
0.553926	227.42
0.559975	227.477
0.57906	229.752
0.584788	230.159
0.603523	229.975
0.609912	230.295
0.628446	232.027
0.634497	232.215
0.65492	232.574
0.660228	232.583
0.678747	234.294
0.684791	234.045
0.704213	236.221
0.709826	236.382
0.72936	237.685
0.734744	237.836
0.7547	240.121
0.75979	240.316
0.765436	243.513
0.780402	242.757
0.785564	242.406
0.792677	243.838
0.808086	245.598
0.817829	247.946
0.830138	247.053
0.841231	250.23
0.851005	246.822
0.861145	254.795
0.870918	250.809
0.881411	261.577
0.889099	264.821
0.896853	265.838
0.904468	266.866
0.911639	274.803
0.920554	281.104
0.927376	284.029
0.935836	292.114
0.937945	301.853
0.94465	307.511
0.9483	320.737
0.953308	332.095
0.955393	352.308
0.959045	364.952
0.962536	390.719
0.964681	406.042
0.968162	417.591
0.970248	435.213
0.972134	452.027
0.973693	501.461
0.974266	518.896
0.974251	467.226
0.97532	481.817
0.977945	544.574
0.978137	498.17
0.979358	514.986
0.982745	546.453
0.996055	573.53

File: c5dt01100k-si_page_11_UiO-66 three pumps_des.txt
# Relative Pressure (p/p0)    Quantity Adsorbed
0.0955302	 204.557
0.102963	206.718
0.110903	208.908
0.119449	207.203
0.126445	209.079
0.134656	211.645
0.143253	209.893
0.149054	210.427
0.157708	213.157
0.166206	212.761
0.172025	212.117
0.180761	215.559
0.188967	214.509
0.195776	213.409
0.20521	216.853
0.213102	216.027
0.220574	214.733
0.22966	218.703
0.237033	218.386
0.245024	216.916
0.252851	219.689
0.260047	220.504
0.268775	218.514
0.276252	220.369
0.284147	221.92
0.292608	219.825
0.298544	220.224
0.307197	222.1
0.315527	220.966
0.322179	224.341
0.330249	223.335
0.337701	224.32
0.34527	225.768
0.353999	224.683
0.360636	225.202
0.369363	222.479
0.37705	224.946
0.384386	225.945
0.393812	223.774
0.401498	225.446
0.409183	226.569
0.418958	223.848
0.426955	226.418
0.434329	227.365
0.443407	225.06
0.450883	226.57
0.458778	228.493
0.467239	226.202
0.473344	226.759
0.481829	229.117
0.490308	227.333
0.496145	226.522
0.50488	229.797
0.513134	228.877
0.519895	227.814
0.528631	231.145
0.535266	231.144
0.543995	229.108
0.551682	231.697
0.559366	232.569
0.568443	230.041
0.575748	231.674
0.583814	233.031
0.593589	230.477
0.601588	233.59
0.608962	234.494
0.618738	232.996
0.62617	234.767
0.634109	235.791
0.643886	234.292
0.651882	236.047
0.659257	237.088
0.668333	234.393
0.67581	236.831
0.683706	238.382
0.692167	236.718
0.698273	237.553
0.706758	239.784
0.715238	238.65
0.721074	238.188
0.72981	241.574
0.737493	241.23
0.745174	239.481
0.753406	243.138
0.760547	243.61
0.769791	242.129
0.776787	243.699
0.784998	246.293
0.792681	246.343
0.800362	244.533
0.810147	249.034
0.818471	249.271
0.824998	248.417
0.833901	252.993
0.841237	254.431
0.849967	253.262
0.857274	256.395
0.866273	258.762
0.872859	259.369
0.882118	267.689
0.889805	270.711
0.898074	272.862
0.905182	277.478
0.912432	283.44
0.920638	299.779
0.926371	308.591
0.933034	319.84
0.9359	337.013
0.941329	362.249
0.943639	376.63
0.946302	389.688
0.949774	415.046
0.948834	398.863
0.951525	449.431
0.951781	432.928
0.955224	477.713
0.955818	459.534
0.957104	500.992
0.96119	520.493
0.96775	561.892
0.976093	567.645

File: c5dt01100k-si_page_11_UiO-66 two pump_ads.txt
# Relative Pressure (p/p0)    Quantity Adsorbed
0.000224052	 231.082
-0.00083903	220.234
-0.000366981	60.1862
-0.00145729	30.0942
-0.000610721	22.5535
0.00472207	201.288
0.00366006	191.192
0.00616543	234.069
0.00405157	221.066
0.00503565	176.081
0.00465917	156.826
0.00485962	133.943
0.00321497	123.447
0.00472559	80.3476
0.00313375	66.0432
0.00485041	45.1468
0.00378608	33.4218
0.0052788	101.091
0.0051704	24.4703
0.00867226	263.453
0.00688524	249.135
0.0146462	273.109
0.0124914	262.051
0.022194	290.426
0.0271267	296.814
0.0338882	302.99
0.0433722	311.294
0.0489653	311.758
0.0571224	314.858
0.0655028	319.643
0.0722965	321.618
0.0814703	322.713
0.0885423	325.821
0.105755	327.419
0.11324	330.416
0.117364	332.017
0.13152	332.228
0.13705	332.841
0.155436	335.263
0.160605	335.645
0.178142	339.224
0.184588	337.648
0.200809	342.448
0.209146	340.253
0.22467	345.167
0.233246	342.778
0.237168	341.843
0.2494	347.462
0.258322	345.277
0.262317	343.751
0.273501	349.528
0.282147	347.779
0.286244	346.724
0.29865	351.924
0.307501	349.681
0.311916	348.175
0.322751	354.067
0.331084	352.433
0.335667	349.773
0.346502	355.971
0.354981	354.321
0.360204	351.985
0.37165	357.823
0.380352	356.181
0.385264	353.179
0.396099	359.396
0.404306	358.786
0.410063	354.882
0.419851	361.632
0.427953	361.29
0.434163	356.711
0.443602	363.258
0.451147	364.047
0.458614	359.242
0.468053	365.608
0.475349	366.278
0.483063	360.476
0.492502	367.569
0.499798	367.708
0.507863	363.338
0.517651	369.366
0.524287	370.038
0.533011	365.024
0.540913	371.218
0.548388	372.401
0.556763	367.276
0.566062	374.042
0.573187	374.186
0.58261	369.67
0.590513	376.192
0.597987	376.715
0.60776	372.744
0.615592	378.711
0.622787	379.221
0.63291	375.763
0.641145	381.57
0.647588	382.472
0.657361	378.502
0.665262	384.174
0.672388	385.234
0.682511	381.576
0.690203	387.376
0.69684	388.27
0.707931	385.236
0.715562	390.495
0.72199	391.476
0.733188	388.084
0.741047	394.223
0.747141	395.217
0.755866	391.237
0.763948	398.364
0.771245	399.725
0.780206	397.785
0.78821	401.045
0.795699	404.964
0.804724	403.572
0.812465	406.333
0.820232	410.208
0.827488	410.44
0.832731	413.572
0.844962	418.252
0.854292	418.873
0.861523	423.128
0.870595	426.127
0.875959	428.539
0.884451	435.944
0.891791	439.899
0.899827	441.989
0.907661	450.211
0.923509	466.039
0.948044	515.737
0.954051	531.56
0.958498	550.317
0.962127	568.286
0.963327	588.316
0.967066	603.507
0.968065	620.485
0.969729	631.57
0.971328	653.263
0.973164	685.997
0.972559	669.876
0.974926	697.446
0.975216	712.505
0.976995	736.727
0.978334	761.177
0.979061	803.151
0.978537	780.991
0.979616	821.97
0.980016	839.102
0.981999	890.952
0.981669	865.879
0.983412	916.408
0.983968	944.338
0.9849	989.168
0.984386	965.675
0.981955	851.98
0.985464	1041.64
0.985201	1010.12
0.986171	1063.26
0.986657	1027.71
0.986947	1083.19
0.990391	1260.39
0.990978	1181.53
0.990958	1167.69
0.991989	1284.78
0.994266	1234.86
0.993795	1197.97
0.993832	1224.24
0.995632	1261.93
0.994569	1251.13
0.996716	1287.95
0.996004	1278.02

File: c5dt01100k-si_page_11_UiO-66 two pump_des.txt
# Relative Pressure (p/p0)    Quantity Adsorbed
0.0958731	 329.334
0.102987	332.33
0.111081	334.664
0.119462	334.108
0.125657	335.015
0.134137	338.899
0.142751	337.958
0.148805	338.292
0.157192	342.133
0.16562	341.692
0.171695	341.523
0.180246	345.09
0.188582	343.685
0.194989	343.11
0.203299	346.881
0.21163	346.524
0.218149	345.694
0.227051	349.34
0.235325	348.958
0.242249	347.925
0.251501	351.467
0.259592	351.533
0.2667	350.412
0.275952	353.928
0.284042	353.948
0.291317	352.974
0.299283	355.286
0.306815	355.853
0.314369	354.237
0.3226	357.406
0.329742	358.587
0.337422	356.611
0.344728	358.576
0.352794	360.322
0.361096	358.301
0.367411	359.207
0.375846	361.502
0.384271	360.725
0.390281	361.056
0.398899	363.681
0.407326	362.614
0.413643	362.123
0.421952	365.305
0.430225	364.765
0.436802	364.127
0.445703	367.43
0.453977	366.716
0.460902	365.74
0.469455	369.167
0.477544	368.525
0.48482	367.963
0.49305	370.879
0.500051	371.28
0.507873	370.448
0.515871	372.916
0.522896	374.159
0.532323	372.048
0.539601	374.005
0.547694	375.454
0.556241	374.199
0.563223	376.017
0.571446	377.969
0.580692	376.92
0.58783	378.351
0.595897	380.263
0.604199	379.22
0.610608	380.071
0.618951	382.887
0.627375	382.03
0.633773	382.533
0.642004	385.51
0.650385	384.971
0.656855	384.397
0.665058	388.023
0.672869	388.324
0.680424	387.152
0.688048	390.035
0.695098	391.778
0.703479	390.637
0.710566	392.392
0.718851	394.737
0.727273	393.671
0.733519	394.565
0.741906	398.305
0.750388	398.445
0.756795	398.329
0.764963	402.873
0.772649	404.562
0.780989	404.361
0.787085	405.045
0.795706	409.574
0.803928	410.902
0.811074	410.536
0.820162	416.201
0.827499	417.834
0.83623	418.082
0.843512	421.904
0.85161	427.293
0.859996	430.056
0.866668	430.964
0.874677	439.359
0.882367	444.159
0.889707	448.202
0.897746	452.425
0.904993	456.236
0.913141	472.412
0.921495	483.834
0.927667	487.822
0.934845	508.692
0.939006	518.268
0.945119	546.832
0.941868	535.062
0.950755	580.727
0.950068	571.621
0.955641	616.037
0.954677	603.905
0.959727	651.474
0.960295	641.228
0.962565	682.248
0.963132	671.913
0.964587	716.72
0.966907	750.419
0.965739	704.427
0.968849	790.551
0.967164	740.252
0.971	832.705
0.969379	775.246
0.969017	717.035
0.973156	875.253
0.971604	817.668
0.973881	922.676
0.971163	753.091
0.974264	864.075
0.972001	851.465
0.974742	1020.02
0.974556	970.514
0.976127	911.312
0.974157	894.373
0.973315	792.813
0.976951	1054.13
0.978486	1090.33
0.97564	955.321
0.975275	943.94
0.975821	835.794
0.979642	1123.25
0.97641	1005.6
0.976392	992.62
0.977508	1041.22
0.979372	1075.15
0.977627	878.366
0.982296	1180.84
0.981584	1163.31
0.978042	924.804
0.982003	1115.12
0.984142	1212.88
0.981499	1146.89
0.986254	1243.63
0.985301	1200.85
0.982818	1091.32
0.987445	1235.35

File: c5dt01100k-si_page_17_CAU-13_ads.txt
# Relative Pressure (p/p0)    Quantity Adsorbed
0.00449307	 99.4121
0.00221422	94.3706
0.00233306	97.3713
0.010697	103.537
0.0110819	102.345
0.0178235	105.062
0.0255603	106.484
0.0327851	107.86
0.0390265	108.705
0.0471928	109.533
0.0549244	110.321
0.0611386	110.672
0.0692098	111.42
0.0769352	111.788
0.0836728	111.776
0.0915402	112.477
0.0989842	112.78
0.106859	112.807
0.113592	113.217
0.121317	113.641
0.129398	113.691
0.135575	113.802
0.14365	114.391
0.151095	114.656
0.158283	114.248
0.165985	115.084
0.17343	115.303
0.180878	115.139
0.188323	115.423
0.195767	115.669
0.203213	115.823
0.210661	115.724
0.218103	116.27
0.225547	116.554
0.232995	116.408
0.240437	116.954
0.247882	117.191
0.25533	117.102
0.262775	117.302
0.270219	117.623
0.277947	117.694
0.284518	117.422
0.292554	118.195
0.299999	118.432
0.30759	118.327
0.31489	118.776
0.322336	118.864
0.330419	118.751
0.336599	118.839
0.344674	119.213
0.35259	119.221
0.359142	119.047
0.367011	119.663
0.374456	119.835
0.382332	119.711
0.389066	120.053
0.396793	120.258
0.404876	120.129
0.411056	120.23
0.419131	120.597
0.42686	120.642
0.433599	120.442
0.44113	120.941
0.455537	120.829
0.461875	121.07
0.469898	121.503
0.477813	121.588
0.484266	121.482
0.492234	122.01
0.499679	122.172
0.507434	121.967
0.514572	122.386
0.522018	122.483
0.530101	122.324
0.536281	122.399
0.544356	122.812
0.552084	122.922
0.558823	122.757
0.566693	123.244
0.574139	123.36
0.582016	123.124
0.589031	123.555
0.596476	123.764
0.604556	123.726
0.610736	123.729
0.618814	124.141
0.62673	124.135
0.633282	123.979
0.641151	124.535
0.648597	124.698
0.656572	124.558
0.663021	124.82
0.670933	125.195
0.679012	125.247
0.685192	125.267
0.69327	125.599
0.700716	125.734
0.708007	125.304
0.715608	126.013
0.723052	126.315
0.731025	126.319
0.73766	126.691
0.745385	127.065
0.753464	127.104
0.759643	127.197
0.76772	127.749
0.775164	127.986
0.782613	127.807
0.790053	128.498
0.797497	128.857
0.80547	128.895
0.812104	129.307
0.819829	129.747
0.827488	129.664
0.834715	130.529
0.842156	131.084
0.849964	131.455
0.85704	132.11
0.864479	132.888
0.87236	133.039
0.879358	134.353
0.886794	135.365
0.894231	136.377
0.901528	136.854
0.9091	138.775
0.916532	140.254
0.92397	141.093
0.930111	143.001
0.935957	145.224
0.94012	146.407
0.946538	149.286
0.949495	151.027
0.956739	155.888
0.953627	153.577
0.95332	150.599
0.961015	159.219
0.961184	155.995
0.963356	161.913
0.965698	164.539
0.970145	169.818
0.968214	166.736
0.972891	174.437
0.974195	172.029
0.974696	178.053
0.974101	170.197
0.976355	181.235
0.977338	184.315
0.977101	174.611
0.978666	186.727
0.979656	189.191
0.981942	192.475
0.984498	208.319
0.982433	196.959
0.983551	194.357
0.985056	219.649
0.983929	201.254
0.985308	212.732
0.984693	203.735
0.986008	215.988
0.986407	223.124
0.988929	208.661
0.98932	219.734

File: c5dt01100k-si_page_17_CAU-13_des.txt
# Relative Pressure (p/p0)    Quantity Adsorbed
0.0916236	 119.869
0.0983262	120.158
0.106349	120.56
0.114395	120.462
0.120718	120.505
0.128685	121.104
0.136712	121.216
0.14358	121.047
0.151021	121.658
0.158467	121.802
0.166079	121.454
0.172781	121.799
0.180804	122.196
0.18885	122.118
0.195172	122.146
0.203141	122.61
0.211057	122.617
0.218038	122.426
0.225479	122.976
0.232926	123.027
0.24068	122.81
0.247188	123.025
0.255263	123.468
0.263309	123.321
0.269731	123.3
0.277601	123.77
0.285518	123.63
0.292499	123.4
0.29966	123.831
0.307387	124.028
0.315141	123.825
0.32165	124.019
0.329725	124.348
0.33781	124.118
0.344195	124.068
0.352065	124.538
0.359795	124.489
0.366963	124.168
0.374123	124.701
0.38185	124.918
0.389605	124.608
0.396113	124.814
0.404189	125.126
0.412269	125.076
0.418781	124.931
0.426527	125.446
0.434256	125.48
0.441423	125.295
0.448585	125.615
0.456313	125.695
0.464191	125.397
0.470575	125.531
0.478653	125.884
0.486734	125.707
0.493246	125.581
0.500991	126.242
0.508719	126.333
0.515886	126.114
0.523047	126.52
0.530775	126.668
0.538752	126.337
0.545075	126.392
0.553115	126.83
0.561143	126.793
0.56785	126.656
0.575453	127.122
0.582899	127.219
0.59035	126.882
0.597326	127.118
0.605239	127.38
0.613216	127.077
0.61961	127.095
0.627578	127.616
0.635606	127.635
0.642313	127.483
0.649916	128.002
0.657363	128.015
0.664976	127.618
0.671678	127.902
0.679703	128.204
0.687748	128.084
0.694072	128.091
0.70204	128.562
0.709956	128.546
0.716937	128.374
0.724378	128.966
0.731823	129.184
0.739433	129.032
0.746084	129.279
0.754157	129.812
0.762239	129.852
0.768624	129.886
0.776493	130.431
0.783938	130.641
0.792019	130.639
0.798528	130.604
0.806271	131.371
0.813715	131.73
0.821163	131.622
0.828025	132.139
0.836043	133.021
0.844014	133.26
0.850335	133.477
0.858367	134.657
0.866238	135.069
0.872656	135.439
0.880683	137.096
0.888401	138.126
0.895562	138.537
0.902525	140.057
0.91042	142.041
0.918278	143.577
0.924207	144.301
0.931351	147.413
0.935355	148.892
0.940123	150.163
0.946177	153.885
0.951754	156.981
0.950753	153.322
0.956417	161.169
0.952893	159.008
0.961984	167.171
0.961083	165.634
0.96098	162.514
0.961	160.657
0.966482	167.225