Folder: Experimental-Data-Digitalization/data/nitrogen-adsorption-isotherms (part 12)

File: jacs.5b00365-si_page_41_MUF-77-ethyl_ads.txt
# Relative Pressure (p/p0)    Quantity Adsorbed
-0.000631981	 76.8089
0.00155421	290.988
0.00144797	185.913
-0.000792004	160.065
0.00100679	148.25
0.000706912	125.509
0.00371548	443.974
0.00324108	381.909
0.00522407	486.645
0.00689129	517.784
0.0120412	582.392
0.00295491	344.979
0.00290286	323.895
0.0120831	606.783
0.016294	628.487
0.0192539	653.29
0.0222089	680.337
0.0264211	705.755
0.0320467	734.841
0.0384377	764.479
0.0442242	791.577
0.0517367	816.107
0.0589084	838.643
0.0661383	861.863
0.074222	884.142
0.0817641	909.883
0.0965104	922.471
0.11262	932.063
0.128723	938.954
0.144822	943.885
0.159272	947.869
0.177015	952.528
0.191973	956.061
0.209212	962.564
0.224673	963.286
0.241847	964.668
0.257797	967.911
0.273579	971.746
0.288654	972.224
0.303362	973.149
0.331355	976.637
0.349951	977.656
0.363536	980.335
0.393523	983.373
0.406686	984.274
0.447455	986.477
0.459544	985.883
0.476891	988.609
0.494337	986.812
0.504884	988.152
0.547094	992.495
0.557331	992.383
0.597401	992.832
0.612907	994.886
0.628993	994.851
0.645083	996.384
0.656052	996.855
0.684573	998.864
0.700654	996.82
0.709434	998.945
0.748921	1000.27
0.765009	1001.13
0.781095	1001.09
0.797806	1000.19
0.807421	1002.46
0.850412	1001.32
0.860071	1004.22
0.898718	1003.6
0.908332	1005.34
0.949588	1003.83
0.959516	1005.5
0.989894	1002.94
1.00046	1003.72

File: jacs.5b00365-si_page_41_MUF-77-methyl_ads.txt
# Relative Pressure (p/p0)    Quantity Adsorbed
-0.00130038	 62.3956
-9.1987e-05	279.556
-0.000495259	181.485
-0.000289274	146.254
0.000363583	115.398
0.00119579	465.143
0.00089731	372.699
0.00359773	588.811
0.00539144	630.111
0.00839053	664.935
0.00113625	233.349
0.0115914	696.364
0.0139464	722.465
0.0206268	749.597
0.0279939	774.233
0.0347733	800.492
0.0429812	828.74
0.0509894	858.47
0.0579396	888.212
0.0641096	919.261
0.069791	948.243
0.0759131	972.011
0.0811863	1003.54
0.0870271	1028.91
0.0973794	1056.21
0.112304	1070.03
0.128371	1081.21
0.144513	1089.37
0.160519	1095.72
0.176596	1100.93
0.192014	1106.96
0.209756	1115.32
0.223811	1118.74
0.240536	1123.37
0.256982	1126.59
0.274437	1127.96
0.28975	1134.81
0.30149	1134.62
0.328612	1142.15
0.343913	1140.71
0.358828	1145.91
0.371741	1148.39
0.392938	1153.01
0.408145	1154.12
0.423643	1155.88
0.445566	1162.82
0.455073	1162.08
0.495277	1168.75
0.504789	1164.69
0.537689	1167.13
0.551579	1168.5
0.581553	1171.04
0.597644	1168.28
0.616159	1173.4
0.626882	1173.64
0.646087	1174.03
0.655392	1177.39
0.672207	1178.66
0.697528	1176.47
0.71059	1181.23
0.723386	1181.28
0.745657	1182.48
0.755552	1185.04
0.796619	1185.49
0.806733	1186.03
0.821356	1186.49
0.846801	1186.74
0.862298	1189.29
0.878384	1189.12
0.894467	1191.06
0.905433	1191.65
0.932483	1194.18
0.948574	1191.49
0.957341	1195.48
0.986926	1195.4
0.997554	1197.14

File: jacs.5b00365-si_page_42_MUF-77-butyl_ads.txt
# Relative Pressure (p/p0)    Quantity Adsorbed
-0.00391652	 243.468
-0.00512955	98.6932
-0.0016756	386.978
-0.00251486	283.276
-0.00302342	201.296
-0.00328221	159.58
0.0007425	462.118
0.000187716	434.646
0.0022551	489.547
0.00354374	512.762
0.0049551	539.816
0.00917023	567.808
-0.000251632	411.204
0.00990466	590.525
0.0145472	614.76
0.00695551	388.473
0.00887612	461.171
0.00870637	433.807
0.0191417	641.918
0.0105057	486.96
0.0241998	665.947
0.0312469	682.987
0.0423586	699.287
0.0574401	708.744
0.0736586	717.216
0.0898577	722.561
0.106053	727.337
0.122455	731.466
0.138287	734.133
0.154613	737.33
0.17025	740.875
0.187636	742.125
0.201786	744.867
0.219341	747.621
0.236613	748.331
0.251694	751.096
0.267868	752.39
0.282557	751.264
0.300321	753.745
0.311237	754.712
0.346681	755.303
0.354895	756.32
0.384007	758.506
0.400179	759.445
0.408994	759.019
0.450463	759.696
0.459708	760.963
0.500439	761.199
0.509688	762.913
0.551582	764.571
0.561134	764.46
0.60066	763.235
0.60964	765.64
0.653181	764.226
0.667322	765.574
0.690551	765.737
0.705172	766.681
0.752052	766.518
0.761028	768.35
0.802915	768.67
0.815409	769.092
0.848474	768.83
0.862435	768.719
0.899915	769.347
0.911671	769.268
0.953156	768.662
0.963113	770.007
0.99348	769.089
1.00427	770.567

File: jacs.5b00365-si_page_42_MUF-77-hexyl_ads.txt
# Relative Pressure (p/p0)    Quantity Adsorbed
-0.000701402	 294.465
-0.000395618	276.52
-0.000356389	243.254
-0.000618786	187.698
-0.000814059	98.8489
0.000908933	341.591
0.00237348	399.965
0.00237348	372.421
0.00330497	424.998
0.00504411	446.531
0.00865665	464.127
0.00211503	329.584
0.00357957	414.152
0.0137398	477.219
0.0109023	439.209
0.020788	489.552
0.0323309	500.781
0.0475159	508.496
0.0636258	514.642
0.0797358	518.889
0.0958458	522.567
0.111956	525.628
0.128066	527.954
0.144176	530.35
0.160286	531.964
0.176396	534.004
0.192506	535.333
0.208616	538.274
0.223353	538.427
0.240378	539.634
0.257861	541.167
0.274311	542.682
0.28791	543.167
0.303902	543.516
0.321971	546.12
0.337495	547.079
0.352028	546.706
0.374109	548.787
0.392965	549.096
0.405074	548.909
0.420974	549.879
0.448252	549.748
0.461982	551.735
0.492286	552.489
0.506016	552.071
0.520563	553.011
0.548975	553.846
0.5645	555.051
0.58061	555.099
0.598012	553.717
0.612219	555.49
0.62894	556.143
0.646305	555.807
0.656975	556.292
0.70116	556.208
0.716812	558.136
0.726332	558.231
0.750692	557.987
0.766607	559.275
0.776858	559.275
0.799742	559.079
0.814937	561.173
0.831047	561.363
0.848529	559.993
0.858873	561.259
0.900655	560.227
0.91599	562.36
0.9321	562.407
0.949502	560.995
0.96432	562.55
0.98043	562.882
0.995248	562.53

File: jacs.5b00365-si_page_43_MUF-77-decyl_ads.txt
# Relative Pressure (p/p0)    Quantity Adsorbed
0.00881876	 209.324
0.0106318	218.308
0.0130155	226.231
0.0144286	232.741
0.0185575	240.613
0.0220737	248.167
0.0270079	254.336
0.0326782	259.958
0.0439811	265.452
0.0577706	271.395
0.0729957	274.935
0.0888701	277.86
0.103392	280.666
0.120058	282.64
0.137616	285.07
0.153715	286.736
0.167431	287.716
0.182994	289.028
0.201344	290.787
0.214867	291.592
0.23174	292.923
0.247615	293.818
0.263489	294.69
0.279364	295.515
0.295799	295.756
0.311112	297
0.326987	297.426
0.342861	298.016
0.358736	298.583
0.37461	298.986
0.391722	299.459
0.405012	299.482
0.422234	300.475
0.438108	300.971
0.453982	301.585
0.469857	301.799
0.485731	302.319
0.501045	301.923
0.51748	303.148
0.533355	303.268
0.549229	303.882
0.565104	303.98
0.580978	304.711
0.598205	304.422
0.61417	305.373
0.630045	305.447
0.645919	305.896
0.661793	306.158
0.677668	306.208
0.694779	306.306
0.708064	306.188
0.725291	307.158
0.741166	307.443
0.75704	307.634
0.772915	307.849
0.788789	308.298
0.804102	307.709
0.820538	308.587
0.836412	309.036
0.852287	309.04
0.868161	309.02
0.884036	309.657
0.901184	309.13
0.915785	309.875
0.931659	310.489
0.948771	310.246
0.962061	310.296
0.979282	311.251
0.994596	310.668

File: jacs.5b00365-si_page_43_MUF-77-octyl_ads.txt
# Relative Pressure (p/p0)    Quantity Adsorbed
-0.00181823	 78.304
-0.00061787	205.025
-0.00044726	193.383
-0.000715361	177.89
0.000844504	245.328
0.000454538	148.659
0.00256889	296.563
0.00409654	309.155
0.00564596	319.943
0.00864383	330.784
0.00211189	258.848
0.00211189	230.021
0.00211189	220.413
0.0072302	79.5464
0.0310344	361.714
0.0459831	368.036
0.0620692	373.392
0.0781553	377.697
0.0942414	381.108
0.110328	384.002
0.126414	386.44
0.1425	388.481
0.158586	390.284
0.174672	391.71
0.190758	393.155
0.205479	395.112
0.222016	395.697
0.239473	397.146
0.256473	398.021
0.270579	399.711
0.286021	400.006
0.302447	400.656
0.31506	401.648
0.342395	402.649
0.355894	402.831
0.371361	404.185
0.397867	404.747
0.407189	406.171
0.434974	406.752
0.451061	405.733
0.46276	406.671
0.49326	407.687
0.504291	407.527
0.524179	409.201
0.542276	409.557
0.554987	409.359
0.570975	410.879
0.599345	410.517
0.614846	411.688
0.628252	411.668
0.647994	411.523
0.659303	412.845
0.684065	413.333
0.699922	412.282
0.71575	414.12
0.731836	414.136
0.748549	414.111
0.75889	415.079
0.79969	414.414
0.815192	415.681
0.847991	415.805
0.86345	416.602
0.879536	416.539
0.896987	415.756
0.906834	416.28
0.935106	418.164
0.951192	417.143
0.959967	418.167
0.989042	417.199
0.999451	417.235

File: jacs.5b00365_page_3_MUF-77-ethyl_ads.txt
# Relative Pressure (p/p0)    Quantity Adsorbed
-0.00155522	 188.919
-0.00237429	162.997
-0.00243047	142.885
-0.00185213	122.036
-0.00209734	71.6905
0.00134326	380.107
0.000872601	288.463
0.00269261	439.944
0.00074635	486.624
0.00523947	513.916
0.0082767	569.024
0.0115827	594.728
0.00405862	349.814
0.00584335	71.7416
0.0138882	623.998
0.0165144	647.184
0.0195721	666.123
0.0219885	692.304
0.0257976	709.511
0.0309613	730.285
0.0342179	751.175
0.0400048	775.477
0.0452406	793.717
0.0500983	809.608
0.0545884	832.981
0.0612406	849.624
0.0684718	866.976
0.0739837	891.886
0.0778346	873.853
0.0812642	902.482
0.0860696	929.862
0.0942962	912.358
0.100179	930.304
0.112096	936.205
0.126034	941.212
0.13813	945.329
0.151169	957.5
0.164155	951.113
0.177442	967.618
0.190177	955.819
0.203765	967.178
0.217245	961.666
0.228099	961.951
0.242497	963.451
0.255786	965.476
0.267222	967.177
0.281776	968.662
0.294915	972.455
0.307279	978.21
0.320273	974.616
0.333281	975.786
0.347326	975.049
0.358278	976.205
0.372303	978.974
0.38531	979.744
0.399238	981.385
0.411334	985.329
0.424329	982.055
0.437335	982.585
0.451255	981.197
0.460267	981.493
0.477537	985.125
0.491646	985.242
0.503575	995.287
0.516555	986.558
0.529559	986.45
0.54367	985.839
0.554464	986.302
0.568576	987.882
0.581583	988.892
0.59551	989.99
0.605248	996.484
0.630059	990.884
0.644166	988.846
0.654954	988.702
0.669076	992.317
0.682081	992.209
0.696005	992.581
0.7081	995.878
0.721094	992.204
0.734102	993.533
0.747845	990.785
0.758172	992.056
0.79426	994.997
0.806233	999.423
0.819224	994.583
0.832228	994.475
0.846272	993.015
0.857125	993.171
0.871245	995.907
0.88425	995.799
0.898003	996.705
0.923263	995.955
0.936271	997.204
0.949807	996.933
0.962289	1000.69
0.975283	996.88
0.988813	994.537
0.999587	995.062

File: jacs.5b00365_page_3_MUF-77-ethyl_des.txt
# Relative Pressure (p/p0)    Quantity Adsorbed
0.952503	 992.026
0.902248	1000.74
0.798424	998.146
0.700641	992.041
0.600551	992.872
0.50045	990.245
0.404995	984.121
0.302577	984.971
0.204746	961.579
0.174467	954.914
0.146525	951.688
0.111581	941.605
0.0812529	917.652
0.0530888	834.898
0.0223748	672.636
0.00555942	486.053

File: jacs.5b00450_page_7_Tb-pek-MOF-1 (1)_ads.txt
# Relative Pressure (p/p0)    Quantity Adsorbed
0.954638	 372.453
0.906964	369.308
0.847413	373.501
0.748661	367.212
0.748661	367.212
0.707811	367.212
0.801436	369.308
0.350329	357.778
0.447363	360.922
0.501845	364.067
0.554609	364.067
0.600581	367.212
0.646542	368.26
0.253289	353.585
0.146011	344.151
0.0812784	333.669
0.0488963	325.283
0.0420666	321.09
0.0266516	302.222
0.00913316	204.738
0.00216966	174.34
-0.00494371	114.591
-0.00494371	114.591
-0.00532908	39.1195

File: jacs.5b00450_page_7_Tb-pek-MOF-1 (1)_des.txt
# Relative Pressure (p/p0)    Quantity Adsorbed
0.952942	 373.501
0.903576	372.453
0.852498	369.308
0.798026	368.26
0.750363	367.212
0.701003	367.212
0.653334	365.115
0.600565	364.067
0.552902	363.019
0.503531	360.922
0.449059	359.874
0.403087	356.73
0.348616	355.681
0.300947	353.585
0.200493	347.296
0.0983259	338.91

File: jacs.5b00450_page_7_Y-aea-MOF-1_ads.txt
# Relative Pressure (p/p0)    Quantity Adsorbed
0.953	 385.031
0.905342	385.031
0.852573	383.983
0.803197	380.839
0.753837	380.839
0.702769	379.79
0.653404	378.742
0.602337	377.694
0.554657	373.501
0.503595	373.501
0.45423	372.453
0.399747	369.308
0.355494	369.308
0.306107	364.067
0.256731	360.922
0.198844	357.778
0.149458	352.537
0.0881509	346.247
0.0796299	344.151
0.0728056	341.006
0.0523379	332.621
0.0386946	327.379
0.0318542	321.09
0.0267052	312.704
0.0232582	304.319
0.0197898	291.74
0.0163108	277.065
0.0128156	259.245
0.0127514	246.667
0.00755419	228.847
0.00754349	226.751
0.00582536	223.606
0.00578789	216.268
0.00573972	206.834
0.00570761	200.545
0.00394666	189.015
0.00390919	181.677
0.0021643	173.291
0.00208402	157.568
0.000280253	137.652
0.000280253	137.652
-0.00149675	122.977
-0.00149675	122.977
-0.00166803	89.434
-0.00171085	81.0482
-0.00173761	75.8071
-0.00176972	69.5178
-0.00180184	63.2285
-0.00183395	56.9392
-0.000153293	52.7463
-0.00188748	46.457
-0.00190889	42.2642
-0.00195706	32.8302
-0.00198382	27.5891
-0.00200523	23.3962
-0.00202664	19.2034
-0.00203735	17.1069
-0.00205876	12.914
-0.00205876	12.914
-0.00208016	8.72117
-0.00211228	2.43187

File: jacs.5b00450_page_7_Y-aea-MOF-1_des.txt
# Relative Pressure (p/p0)    Quantity Adsorbed
0.958112	 386.08
0.900236	385.031
0.847461	382.935
0.798091	380.839
0.750427	379.79
0.697658	378.742
0.648292	377.694
0.59723	377.694
0.547854	374.549
0.500191	373.501
0.449118	371.405
0.399753	370.356
0.348675	367.212
0.2959	365.115
0.258444	363.019
0.203961	359.874
0.181824	357.778
0.134139	352.537
0.105188	349.392
0.0983634	346.247

File: jacs.5b00450_page_7_Y-pek-MOF-1 (2)_ads.txt
# Relative Pressure (p/p0)    Quantity Adsorbed
0.955066	 456.31
0.912515	456.31
0.851229	454.214
0.808683	455.262
0.75761	453.166
0.715053	452.117
0.652071	451.069
0.60611	450.021
0.541421	447.925
0.498869	447.925
0.4512	445.828
0.406941	444.78
0.347353	441.635
0.301381	438.491
0.262217	435.346
0.199224	432.201
0.161757	428.008
0.10895	419.623
0.0936158	416.478
0.0816799	412.285
0.0714514	409.14
0.0646163	403.899
0.050973	398.658
0.0441273	391.321
0.040691	385.031
0.0372441	376.646
0.0320897	367.212
0.0303234	354.633
0.0268764	346.247
0.0251583	343.103
0.0234295	337.862
0.0234027	332.621
0.0199611	325.283
0.0182216	317.945
0.0181734	308.512
0.0181359	301.174
0.0180824	290.692
0.0180396	282.306
0.0128799	271.824
0.0128638	268.679
0.011135	263.438
0.00941148	259.245
0.00937937	252.956
0.00934725	246.667
0.00932584	242.474
0.00928838	235.136
0.00582536	223.606
0.00577184	213.124
0.00573972	206.834
0.00392525	184.822
0.00206261	153.375
0.00184316	110.398
0.00167723	77.9036
-0.000206818	42.2642
-0.00210693	3.48008

File: jacs.5b00450_page_7_Y-pek-MOF-1 (2)_des.txt
# Relative Pressure (p/p0)    Quantity Adsorbed
0.955056	 454.214
0.910813	456.31
0.846118	453.166
0.800162	453.166
0.754206	453.166
0.704841	452.117
0.645263	451.069
0.595898	450.021
0.548229	447.925
0.503964	445.828
0.458003	444.78
0.410345	444.78
0.352453	440.587
0.304785	438.491
0.246893	434.298
0.206022	430.105
0.163454	426.96
0.110658	420.671
0.0850894	413.333
0.0629196	404.948
0.0526804	399.706

File: jacs.5b02897-si_page_18_Fe2(DOBDC)(DMF)2_ads.txt
# Relative Pressure (p/p0)    Quantity Adsorbed
0.904725	 62.3409
0.826251	62.1761
0.721113	62.5058
0.620938	62.3409
0.52744	62.1761
0.417293	62.5058
0.308757	62.1761
0.205228	61.8464
0.101655	61.0221
0.0598469	60.1978
0.041395	59.2087
0.0363424	58.7141
0.0296056	58.0547
0.0194707	56.7359
0.00575936	52.7794
0.0110051	55.4171
0.0110051	55.4171
0.00500147	44.3719
0.00235134	33.4916
0.0013854	22.7761
0.000330301	11.0715

File: jacs.5b02897-si_page_18_Fe2(DSBDC)(DMF)2_ads.txt
# Relative Pressure (p/p0)    Quantity Adsorbed
0.90793	 60.8572
0.800319	52.2849
0.706242	45.6907
0.615652	40.7451
0.521649	34.9753
0.427661	29.3703
0.305205	22.7761
0.202855	17.0063
0.100505	11.2364
0.0652116	8.59875
0.0517974	7.93933
0.0299623	6.45565
0.0147896	4.80712

File: jacs.5b02897-si_page_18_Mn2(DOBDC)(DMF)2_ads.txt
# Relative Pressure (p/p0)    Quantity Adsorbed
0.910822	 77.3887
0.804989	76.6766
0.708771	75.9644
0.605405	75.9644
0.506805	75.4896
0.405843	75.4896
0.312051	75.0148
0.203835	74.5401
0.105127	72.8783
0.0665801	71.9288
0.049689	71.2166
0.0376056	70.5045
0.0253937	68.368
0.0107781	66.2315
0.00783925	60.2967
0.00700468	51.0386
0.00604171	40.3561
0.0027391	30.3858
0.00184033	20.4154
-0.00386613	10.4451

File: jacs.5b02897-si_page_18_Mn2(DSBDC)(DMF)2_ads.txt
# Relative Pressure (p/p0)    Quantity Adsorbed
0.922508	 55.9116
0.820678	55.9116
0.725541	56.0765
0.620447	56.9008
0.52364	57.0656
0.425239	58.0547
0.300098	58.7141
0.204946	58.7141
0.101491	59.2087
0.0562853	57.725
0.0445554	57.2305
0.034465	56.4062
0.0327065	55.4171
0.0175042	53.4388
0.0105147	49.9769
0.00152905	42.8882
0.00522934	28.3811
-0.00110127	13.7092

File: jacs.5b11034-si_page_17_Cu-bpdc-8a(bpy)_ads.txt
# Relative Pressure (p/p0)    Quantity Adsorbed
0.99211	 400.662
0.990058	485.099
0.982013	355.96
0.976862	312.914
0.969258	273.179
0.959218	240.066
0.959218	240.066
0.94675	215.232
0.946734	211.921
0.94424	206.954
0.94424	206.954
0.936775	195.364
0.926883	192.053
0.919442	185.43
0.902109	175.497
0.902109	175.497
0.897147	170.53
0.889731	168.874
0.879838	165.563
0.86746	158.94
0.852637	157.285
0.827905	149.007
0.815551	147.351
0.778465	137.417
0.778465	137.417
0.743872	132.45
0.706827	130.795
0.603082	122.517
0.603082	122.517
0.499338	114.238
0.499338	114.238
0.452424	114.238
0.405494	110.927
0.353642	110.927
0.299297	105.96
0.28942	105.96
0.279536	104.305
0.244968	104.305
0.225206	102.649
0.205453	102.649
0.180737	97.6821
0.153577	97.6821
0.143692	96.0265
0.1264	94.3709
0.111585	94.3709
0.0992151	89.404
0.0769847	87.7483
0.0473387	84.4371
0.0127136	72.8477
0.000286158	56.2914
0.000286158	56.2914
0.000212575	41.3907
0.000106287	19.8675
0.800695	139.073

File: jacs.5b11034-si_page_17_Cu-bpdc-8a(bpy)_des.txt
# Relative Pressure (p/p0)    Quantity Adsorbed
0.990074	 488.411
0.992405	460.265
0.982381	430.464
0.979748	397.351
0.972079	344.371
0.966904	296.358
0.954329	250.0
0.954329	250.0
0.959357	268.212
0.941902	233.444
0.936906	221.854
0.926964	208.609
0.917022	195.364
0.907097	185.43
0.897171	175.497
0.879846	167.219
0.867484	163.907
0.842752	155.629
0.820505	150.662
0.768604	140.728
0.768604	140.728
0.741428	137.417
0.701913	135.762
0.654967	129.139
0.600613	122.517
0.546284	120.861
0.526523	119.205
0.499362	119.205
0.491955	119.205
0.469724	117.55
0.440078	114.238
0.425264	114.238
0.400556	110.927
0.370926	110.927
0.358581	110.927
0.306704	105.96
0.269659	104.305
0.259783	104.305
0.23756	104.305
0.217807	104.305
0.200523	104.305
0.190639	102.649
0.1857	102.649
0.170877	100.993
0.158532	100.993
0.131371	100.993
0.0968032	100.993
0.0770256	96.0265
0.0523342	96.0265
0.0300711	87.7483
0.00784073	86.0927
0.805674	147.351

File: jacs.5b11034_page_4_MOF-1'_ads.txt
# Relative Pressure (p/p0)    Quantity Adsorbed
0.00757804	 1.23455
0.0344415	1.69491
0.0612869	1.98033
0.0881212	2.15795
0.114948	2.25827
0.141787	2.48064
0.16672	2.60697
0.195454	2.82774
0.222282	2.94026
0.246662	2.95479
0.280813	3.16469
0.300304	3.05237
0.36858	3.21627
0.401516	3.4654
0.44905	3.42657
0.519734	3.30284
0.569713	3.33687
0.618459	3.23836
0.668427	3.16953
0.720835	3.11623
0.763501	3.15198
0.790318	3.16077
0.817135	3.16955
0.84029	3.13456
0.882953	3.14286
0.909784	3.28589
0.936622	3.49606
0.963484	3.94726
0.986724	4.73532

File: jacs.5b11034_page_4_MOF-1'_des.txt
# Relative Pressure (p/p0)    Quantity Adsorbed
0.968059	 4.27373
0.968059	4.27373
0.991338	5.54555
0.948747	4.06373
0.925599	4.06668
0.906298	3.9629
0.887019	4.07159
0.856155	4.07553
0.813707	3.97471
0.786701	3.97815
0.767411	3.98061
0.721115	3.98651
0.680607	3.99168
0.624677	4.10504
0.595709	3.79003
0.595709	3.79003
0.528206	3.90487
0.503129	3.90807
0.462631	4.01946
0.435593	3.70421
0.397013	3.70913
0.371947	3.81856
0.32758	3.82421
0.292826	3.50995
0.271618	3.61888
0.24847	3.62183
0.223382	3.5188
0.180955	3.63044
0.175168	3.63118
0.161644	3.42044
0.123042	3.21289
0.0979434	3.00363
0.0709157	2.79461
0.051604	2.58461
0.051604	2.58461
0.0322813	2.26837
0.0110187	1.84616

File: jacs.5b11034_page_4_MOF-2_ads.txt
# Relative Pressure (p/p0)    Quantity Adsorbed
0.0173487	 0.692515
0.0440946	1.26812
0.0708491	2.2488
0.0975804	2.14411
0.124317	2.2947
0.151055	2.50974
0.177793	2.7149
0.204538	3.2458
0.231278	3.53138
0.258003	3.16
0.284749	3.72137
0.302961	3.01739
0.352794	3.51684
0.405544	4.08046
0.430918	3.84121
0.45882	3.67035
0.488478	3.10153
0.512498	3.40993
0.549639	2.99135
0.617684	2.83448
0.668712	2.39856
0.721689	2.22747
0.748647	2.63605
0.775653	2.7385
0.802371	2.02327
0.829361	2.61254
0.856019	0.980451
0.879094	1.73116
0.909313	2.37318
0.936353	1.5207
0.96549	1.23472
0.987076	2.00453

File: jacs.5b11034_page_4_MOF-2_des.txt
# Relative Pressure (p/p0)    Quantity Adsorbed
0.984752	 3.828
0.973214	3.84269
0.948205	3.45001
0.921265	2.63527
0.898189	2.66466
0.878958	2.68915
0.853959	2.72099
0.823182	2.33566
0.800096	1.94053
0.782798	2.38709
0.750116	2.85324
0.719338	2.46791
0.680869	2.09238
0.632811	3.00264
0.534701	1.42948
0.482788	1.92012
0.482788	1.92012
0.455866	1.95441
0.419328	2.00094
0.419328	2.00094
0.369339	2.48914
0.348176	2.09156
0.332792	2.11115
0.282757	0.476765
0.255844	0.93557
0.255844	0.93557
0.182778	1.45315
0.155847	1.06292
0.105821	-0.146948
0.0365828	-0.483296
0.0365828	-0.483296

File: jacs.5b11034_page_4_Zn-bpdc-8a(bpy)_ads.txt
# Relative Pressure (p/p0)    Quantity Adsorbed
0.147086	 1.86362
0.176284	2.10603
0.203669	2.11149
0.236222	2.18789
0.263036	2.16769
0.286978	2.53744
0.303897	2.43099
0.351477	2.84446
0.402661	2.74396
0.476272	2.63165
0.496474	2.32253
0.550091	2.18144
0.618389	2.55871
0.65007	2.44839
0.698845	2.63237
0.740309	2.83965
0.773242	3.0592
0.840413	4.32604
0.873343	4.51712
0.900223	5.13736
0.92715	6.21458
0.947994	7.40686
0.961249	8.88235
0.973933	10.7238
0.987939	16.5394
0.985189	13.5039
0.0301993	0.781387
0.0900525	1.30492

File: jacs.5b11034_page_4_Zn-bpdc-8a(bpy)_des.txt
# Relative Pressure (p/p0)    Quantity Adsorbed
0.976704	 13.3024
0.955102	9.58699
0.933654	7.35885
0.918145	6.6172
0.894877	5.45161
0.838838	4.50267
0.811822	4.39988
0.798286	4.08291
0.740351	3.4529
0.740351	3.4529
0.649623	2.82707
0.649623	2.82707
0.603316	2.72674
0.551244	2.83961
0.504916	2.52682
0.504916	2.52682
0.448964	2.42772
0.448964	2.42772
0.402647	2.22116
0.371783	2.22509
0.352482	2.12132
0.352482	2.12132
0.331263	2.12403
0.257962	2.13337
0.275323	2.13116
0.275323	2.13116
0.203961	2.24649
0.203961	2.24649
0.180813	2.24944
0.155704	1.93394
0.128698	1.93739

File: jacs.5b11034_page_4_Zn-bpdc-9a(bpe)_ads.txt
# Relative Pressure (p/p0)    Quantity Adsorbed
0.17626	 -0.777976
0.204449	-0.903294
0.231456	-0.788659
0.260009	-0.488644
0.286483	-0.41538
0.302898	0.0666877
0.341761	-0.988754
0.38348	-1.04189
0.406179	-0.292864
0.470981	-0.616822
0.490421	-0.730998
0.521787	-0.566563
0.552007	0.0847427
0.603868	0.734034
0.669869	-0.300086
0.722121	-0.310747
0.741548	-1.05083
0.771925	-1.13423
0.818521	-0.433521
0.846051	-1.0945
0.897098	-0.584691
0.920196	-0.115925
0.987483	6.87354

File: jacs.5b11034_page_4_Zn-bpdc-9a(bpe)_des.txt
# Relative Pressure (p/p0)    Quantity Adsorbed
0.986729	 6.37265
0.923197	3.05734
0.819281	-0.206544
0.703927	1.21395
0.703927	1.21395
0.65586	1.6997
0.576998	0.951081
0.532787	1.85644

File: jacs.5b11034_page_4_Zn-bpdc-9a(bpy)_ads.txt
# Relative Pressure (p/p0)    Quantity Adsorbed
0.0184518	 0.296674
0.0471629	0.94498
0.0755782	1.35064
0.0917104	1.50149
0.211175	3.97665
0.238744	4.18794
0.269372	4.51631
0.296793	4.46918
0.349669	5.01512
0.404143	5.30465
0.450483	5.51131
0.499233	5.44356
0.551674	5.71497
0.600466	6.06356
0.651696	6.41184
0.701714	6.82069
0.74199	7.32412
0.771286	7.73913
0.804996	8.40066
0.832643	9.10047
0.861188	10.1112
0.886227	11.2693
0.911772	12.7409
0.927239	14.1885
0.943515	16.0047
0.955174	17.9583
0.962672	19.7537
0.968991	21.9287
0.976577	24.5786
0.99096	34.0535
0.986722	28.4058

File: jacs.5b11034_page_4_Zn-bpdc-9a(bpy)_des.txt
# Relative Pressure (p/p0)    Quantity Adsorbed
0.980108	 27.6433
0.958222	21.1659
0.942397	17.3436
0.917069	14.9035
0.901484	13.4182
0.872418	12.1471
0.862707	11.511
0.841434	10.9825
0.822068	10.2413
0.796936	9.71339
0.773723	9.07896
0.738946	8.55223
0.698383	8.02624
0.650071	7.18254
0.597944	6.76425
0.551627	6.55769
0.526506	6.13597
0.501419	6.03293
0.462784	5.5067
0.437696	5.40366
0.437696	5.40366
0.393308	5.19686
0.373974	4.77439
0.352712	4.35217
0.331482	4.24865
0.277448	4.04307
0.254279	3.83356
0.213759	3.73249
0.169338	3.20699
0.132643	2.78674
0.0766261	2.05026
0.0495438	1.31008
0.0302102	0.887618

File: jacs.5b11034_page_4_Zn-bpdc-10a(bpe)_ads.txt
# Relative Pressure (p/p0)    Quantity Adsorbed
0.00412716	 7.48883
0.0333533	10.4024
0.0664449	12.238
0.0924624	12.8487
0.122749	14.2117
0.149621	15.0024
0.174118	15.5211
0.20212	16.4765
0.229864	16.9657
0.254654	17.0057
0.285654	17.648
0.304493	17.8364
0.354328	18.4436
0.402962	19.7229
0.44915	20.3012
0.503843	20.8015
0.554903	21.8989
0.603533	22.9994
0.655809	24.0953
0.742073	23.5383
0.772474	24.5503
0.809386	26.9995
0.836977	29.2052
0.863759	31.4634
0.88984	35.0585
0.91495	38.6951
0.939574	44.974
0.958171	52.0715
0.968855	59.1744
0.976332	67.9028
0.980151	76.0362
0.989014	92.7013

File: jacs.5b11034_page_4_Zn-bpdc-10a(bpe)_des.txt
# Relative Pressure (p/p0)    Quantity Adsorbed
0.0978721	 15.7954
0.124604	15.7125
0.152654	16.0946
0.178309	17.3731
0.3527	19.8317
0.484426	22.0026
0.512182	22.4655
0.595434	23.1065
0.619567	22.7197
0.647335	25.6078
0.67432	24.7572
0.728573	28.6613
0.754366	30.1649
0.778714	32.2434
0.807895	33.0701
0.833769	35.465
0.861481	38.6077
0.877768	42.5813
0.90104	41.7223
0.915677	46.4649
0.945335	50.3446
0.961588	60.3051
0.963876	53.6533
0.975739	68.5962
0.998721	117.584
0.979046	96.807
0.0253168	12.2669
0.0253168	12.2669
0.0503796	15.2067
0.073465	15.6018
0.250483	20.0462
0.275482	20.0143
0.300482	19.9825
0.350489	20.3433
0.373584	21.163
0.392823	21.563
0.460138	21.9018
0.500549	23.1239
0.527471	23.0896
0.548661	24.7608
0.604437	25.1142
0.223524	18.3824
0.196602	18.4167
0.0099326	12.2865

File: jacs.5b11034_page_4_Zn-bpdc-11a(bpe)_ads.txt
# Relative Pressure (p/p0)    Quantity Adsorbed
0.0425518	 4.89149
0.0748236	6.27213
0.126863	7.69019
0.247222	10.3983
0.404035	13.0957
0.448999	13.2262
0.497624	14.1031
0.551098	14.4374
0.597291	15.2169
0.650774	15.9535
0.699401	16.9311
0.740743	18.1526
0.771141	19.0304
0.803328	20.5606
0.830225	21.9653
0.855955	23.7047
0.883071	25.391
0.912303	28.5765
0.934234	31.2816
0.946509	37.0483
0.959453	43.0986
0.967418	48.7992
0.991137	78.3321
0.989639	65.1151
0.985796	55.8653
0.991493	95.023